{
  "resourceType" : "Bundle",
  "id" : "example-iv-5",
  "meta" : {
    "profile" : ["https://fhir.hl7.at/elga-iv-diabetes-r4/StructureDefinition/diab-bundle"]
  },
  "identifier" : {
    "system" : "http://system-to-be-defined.com",
    "value" : "63fef90a-be11-4ddf-aece-d77da15c4f13"
  },
  "type" : "document",
  "timestamp" : "2025-03-15T14:01:30+00:00",
  "entry" : [{
    "fullUrl" : "urn:uuid:212fdc76-ccc3-40bf-8cdd-82f2ef88bd7b",
    "resource" : {
      "resourceType" : "Composition",
      "id" : "example-iv-5-composition",
      "meta" : {
        "profile" : ["https://fhir.hl7.at/elga-iv-diabetes-r4/StructureDefinition/diab-composition"]
      },
      "text" : {
        "status" : "extensions",
        "div" : "<div xmlns=\"http://www.w3.org/1999/xhtml\"><a name=\"Composition_example-iv-5-composition\"> </a><p class=\"res-header-id\"><b>Generated Narrative: Composition example-iv-5-composition</b></p><a name=\"example-iv-5-composition\"> </a><a name=\"hcexample-iv-5-composition\"> </a><a name=\"example-iv-5-composition-en-US\"> </a><div style=\"display: inline-block; background-color: #d9e0e7; padding: 6px; margin: 4px; border: 1px solid #8da1b4; border-radius: 5px; line-height: 60%\"><p style=\"margin-bottom: 0px\"/><p style=\"margin-bottom: 0px\">Profile: <a href=\"StructureDefinition-diab-composition.html\">Diabetes Composition</a></p></div><p><b>Country of Affiliation</b>: AT</p><p><b>status</b>: Final</p><p><b>type</b>: <span title=\"Codes:{http://loinc.org 60591-5}\">Diabetes Leitdokument</span></p><p><b>date</b>: 2023-04-09 09:01:30+0000</p><p><b>author</b>: <a href=\"Bundle-example-iv-1.html#urn-uuid-75db30ee-7028-486c-929a-c5126837f474\">APS Generator</a></p><p><b>title</b>: Diabetes Leitdokument</p><p><b>custodian</b>: <a href=\"Bundle-example-iv-1.html#urn-uuid-f6266e6a-f63d-4673-b2de-3dff11e619d6\">Muster-Organisation</a></p></div>"
      },
      "extension" : [{
        "url" : "https://fhir.hl7.at/elga/aps/r4/StructureDefinition/at-aps-ext-composition-countryOfAffiliation",
        "valueString" : "AT"
      }],
      "status" : "final",
      "type" : {
        "coding" : [{
          "system" : "http://loinc.org",
          "code" : "60591-5",
          "display" : "Diabetes Leitdokument"
        }]
      },
      "subject" : {
        "reference" : "urn:uuid:0fed5ebe-ca8f-4ad1-aba4-ddad45bd6cc8",
        "display" : "Anton Testpatient"
      },
      "date" : "2023-04-09T09:01:30+00:00",
      "author" : [{
        "reference" : "urn:uuid:75db30ee-7028-486c-929a-c5126837f474",
        "display" : "APS Generator"
      }],
      "title" : "Diabetes Leitdokument",
      "custodian" : {
        "reference" : "urn:uuid:f6266e6a-f63d-4673-b2de-3dff11e619d6",
        "display" : "Muster-Organisation"
      },
      "section" : [{
        "title" : "Medikationsliste",
        "code" : {
          "coding" : [{
            "system" : "http://loinc.org",
            "code" : "10160-0",
            "display" : "Medikationsanamnese"
          }]
        },
        "text" : {
          "status" : "empty",
          "div" : "<div xmlns=\"http://www.w3.org/1999/xhtml\"><p>Ramipril 5 mg 1-0-0-0, Start 15.06.2016</p><p>Metformin 500 mg 1-0-1-0, Start 09.04.2023</p></div>"
        },
        "entry" : [{
          "reference" : "urn:uuid:acac4c94-a752-4cf5-9a6b-0d84237d5076",
          "display" : "RAMIPRIL 1A TBL  5MG"
        },
        {
          "reference" : "urn:uuid:acac4c94-a752-4cf5-9a6b-0d84237d5011",
          "display" : "METFORMIN HEX FTBL  500MG"
        }]
      },
      {
        "title" : "Allergien und Intoleranzen",
        "code" : {
          "coding" : [{
            "system" : "http://loinc.org",
            "code" : "48765-2",
            "display" : "Allergien und unerwünschte Wirkungen"
          }]
        },
        "text" : {
          "status" : "empty",
          "div" : "<div xmlns=\"http://www.w3.org/1999/xhtml\"><p>Allergie gegen Benzylpenicillin-Natrium.</p></div>"
        },
        "entry" : [{
          "reference" : "urn:uuid:768eb9cb-00f3-4ab1-bfc2-ff835cb3b89b",
          "display" : "Allergie gegen Benzylpenicillin-Natrium"
        }]
      },
      {
        "title" : "Gesundheitsprobleme und Risiken",
        "code" : {
          "coding" : [{
            "system" : "http://loinc.org",
            "code" : "11450-4",
            "display" : "Problemliste"
          }]
        },
        "text" : {
          "status" : "empty",
          "div" : "<div xmlns=\"http://www.w3.org/1999/xhtml\"><p>Diabetes Mellitus Typ 2</p><p>Arterielle Hypertonie</p><p>Adipositas</p><p>Diabettes Mellitus Typ 2</p><p>Familienanamnese: orzeitige koronare Herzerkrankung, Diabetes mellitus</p></div>"
        },
        "entry" : [{
          "reference" : "urn:uuid:9d1c0b74-20c1-4603-a95a-71e6a1dc8fde",
          "display" : "Arterielle Hypertonie"
        },
        {
          "reference" : "urn:uuid:8d3a18fb-3610-4bfb-9aa4-1169cc6dd2dd",
          "display" : "Adipositas"
        },
        {
          "reference" : "urn:uuid:a3a9be59-ec61-4cab-92a9-9cbab6aec437",
          "display" : "Diabetes Mellitus Typ 2"
        },
        {
          "reference" : "urn:uuid:e66d8ac1-a124-4e94-be22-969c9b117ce5",
          "display" : "Familienanamnese: Vorzeitige koronare Herzerkrankung"
        },
        {
          "reference" : "urn:uuid:e66d8ac1-a124-4e94-be22-969c9b117ce6",
          "display" : "Diabetes mellitus in der Familienanamnese"
        }]
      },
      {
        "title" : "Eingriffe und Therapien",
        "code" : {
          "coding" : [{
            "system" : "http://loinc.org",
            "code" : "47519-4",
            "display" : "Anamnese der Prozeduren oder Maßnahmen"
          }]
        },
        "text" : {
          "status" : "empty",
          "div" : "<div xmlns=\"http://www.w3.org/1999/xhtml\"><p>Totalersatz des linken Hüftgelenks</p></div>"
        },
        "entry" : [{
          "reference" : "urn:uuid:75c46c35-8f4e-4232-b026-5672c60d076a",
          "display" : "Totalersatz des linken Hüftgelenks"
        }]
      },
      {
        "title" : "Implantate, medizinische Geräte und Heilbehelfe",
        "code" : {
          "coding" : [{
            "system" : "http://loinc.org",
            "code" : "46264-8",
            "display" : "Anamnese zum Einsatz von Medizinprodukten"
          }]
        },
        "text" : {
          "status" : "empty",
          "div" : "<div xmlns=\"http://www.w3.org/1999/xhtml\"><p>Hüftprothese</p></div>"
        },
        "entry" : [{
          "reference" : "urn:uuid:490dab5c-271e-4736-8a6b-5f6f089d0a11",
          "display" : "Hüftprothese"
        }]
      },
      {
        "title" : "Impfungen",
        "code" : {
          "coding" : [{
            "system" : "http://loinc.org",
            "code" : "11369-6",
            "display" : "Impfungen"
          }]
        },
        "text" : {
          "status" : "empty",
          "div" : "<div xmlns=\"http://www.w3.org/1999/xhtml\"><p>Impfung gegen Diphtherie-Pertussis-Poliomyelitis-Tetanus</p></div>"
        },
        "entry" : [{
          "reference" : "urn:uuid:590dab5c-271e-4736-8a6b-d04fd2a04607",
          "display" : "Diphtherie-Pertussis-Poliomyelitis-Tetanus"
        }]
      },
      {
        "title" : "Diagnostische Resultate",
        "code" : {
          "coding" : [{
            "system" : "http://loinc.org",
            "code" : "30954-2",
            "display" : "Relevante diagnostische Tests oder Labordaten"
          }]
        },
        "text" : {
          "status" : "empty",
          "div" : "<div xmlns=\"http://www.w3.org/1999/xhtml\"><p>Glucose im kapillaren Blut 1h postprandial</p><p>Hemoglobin A1c/Hemoglobin im Blut: 8.1 %</p><p>Kreatinin in Serum: 1.2 mg/dL</p></div>"
        },
        "entry" : [{
          "reference" : "urn:uuid:725bcf71-22e6-473b-a879-49a4b63cd654",
          "display" : "Glucose im kapillaren Blut 1h postprandial"
        },
        {
          "reference" : "urn:uuid:aeff2319-2cc2-4fba-9541-7a4de3d20f91",
          "display" : "Hemoglobin A1c/Hemoglobin.total in Blood"
        },
        {
          "reference" : "urn:uuid:d16dce15-bc5a-48a5-910e-6ac039785a2a",
          "display" : "Kreatinin in Serum"
        }]
      },
      {
        "title" : "Vitalparameter",
        "code" : {
          "coding" : [{
            "system" : "http://loinc.org",
            "code" : "8716-3",
            "display" : "Vitalparameter"
          }]
        },
        "text" : {
          "status" : "empty",
          "div" : "<div xmlns=\"http://www.w3.org/1999/xhtml\"><p>Körpergröße: 173 cm</p><p>Körpergewicht: 90 kg</p><p>BMI: 30.07 (high)</p><p>Blutdruck 180 / 80</p><p>Herzfrequenz 100</p></div>"
        },
        "entry" : [{
          "reference" : "urn:uuid:74c5e186-d765-4c93-a624-c9b0746e8142",
          "display" : "Körpergröße: 173 cm"
        },
        {
          "reference" : "urn:uuid:428259da-e0f7-4780-b1e3-c177515edd37",
          "display" : "Körpergewicht: 90 kg"
        },
        {
          "reference" : "urn:uuid:daf9c15d-14d4-429c-b658-6842fdff67d8",
          "display" : "BMI: 30.07 (high)"
        },
        {
          "reference" : "urn:uuid:8248cc70-65a2-4d37-ae14-a3ef2abf8f32",
          "display" : "Blutdruck 180 / 80"
        },
        {
          "reference" : "urn:uuid:4d3f7ac4-fd0a-49af-a56b-303a2dbe67d1",
          "display" : "Herzfrequenz 100"
        }]
      },
      {
        "title" : "Vergangene Gesundheitsprobleme und Risiken",
        "code" : {
          "coding" : [{
            "system" : "http://loinc.org",
            "code" : "11348-0",
            "display" : "Vergangene Gesundheitsprobleme und Risiken"
          }]
        },
        "text" : {
          "status" : "empty",
          "div" : "<div xmlns=\"http://www.w3.org/1999/xhtml\"><p>Masernerkrankung in der Kindheit.</p></div>"
        },
        "entry" : [{
          "reference" : "urn:uuid:82301518-66ca-4b4c-821d-087adf643cc4",
          "display" : "Vergangene Masernerkrankung"
        }]
      },
      {
        "title" : "Behandlungsplan",
        "code" : {
          "coding" : [{
            "system" : "http://loinc.org",
            "code" : "18776-5",
            "display" : "Behandlungsplan - Notiz"
          }]
        },
        "text" : {
          "status" : "empty",
          "div" : "<div xmlns=\"http://www.w3.org/1999/xhtml\"><p>Angeforderte Laboruntersuchung: Status abgeschlossen</p><p>Empfohlene Ernährungsschulung bei Diabetes mellitus Typ II: Status offen</p><p>Zuweisung zu Augenuntersuchung: Status offen</p></div>"
        },
        "entry" : [{
          "reference" : "urn:uuid:39cd75da-2456-46a9-a703-89d8b65ae333",
          "display" : "Careplan Diabetes"
        }]
      },
      {
        "title" : "Lebensstil, soziale Umstände und Verhalten",
        "code" : {
          "coding" : [{
            "system" : "http://loinc.org",
            "code" : "29762-2",
            "display" : "Sozialanamnese"
          }]
        },
        "text" : {
          "status" : "empty",
          "div" : "<div xmlns=\"http://www.w3.org/1999/xhtml\"><p>Ehemaliger Raucher, Person</p><p>Alkoholische Getränke pro Tag, 1-2 Gläser Wein/Bier</p><p>Körperliche Aktivität 2,5h/Wo</p></div>"
        },
        "entry" : [{
          "reference" : "urn:uuid:d0a5bbf1-6d01-4d44-bac5-05f12c98411e",
          "display" : "Ehemalig rauchende Person"
        },
        {
          "reference" : "urn:uuid:d0a5bbf1-6d01-4d44-bac5-05f12c984112",
          "display" : "Alkoholische Getränke pro Tag, 1-2 Gläser Wein/Bier"
        },
        {
          "reference" : "urn:uuid:9add5c32-1ded-43d6-b163-c3fe13f94984",
          "display" : "Körperliche Aktivität"
        }]
      }]
    }
  },
  {
    "fullUrl" : "urn:uuid:0fed5ebe-ca8f-4ad1-aba4-ddad45bd6cc8",
    "resource" : {
      "resourceType" : "Patient",
      "id" : "001",
      "meta" : {
        "profile" : ["https://fhir.hl7.at/elga/aps/r4/StructureDefinition/at-aps-patient"]
      },
      "text" : {
        "status" : "generated",
        "div" : "<div xmlns=\"http://www.w3.org/1999/xhtml\"><a name=\"Patient_001\"> </a><p class=\"res-header-id\"><b>Generated Narrative: Patient 001</b></p><a name=\"001\"> </a><a name=\"hc001\"> </a><a name=\"001-en-US\"> </a><div style=\"display: inline-block; background-color: #d9e0e7; padding: 6px; margin: 4px; border: 1px solid #8da1b4; border-radius: 5px; line-height: 60%\"><p style=\"margin-bottom: 0px\"/><p style=\"margin-bottom: 0px\">Profile: <a href=\"https://build.fhir.org/ig/HL7Austria/ELGA-AustrianPatientSummary-R4/StructureDefinition-at-aps-patient.html\">AT APS Patient</a></p></div><p style=\"border: 1px #661aff solid; background-color: #e6e6ff; padding: 10px;\">Anton Testpatient  Male, DoB: 1953-11-12 ( Social Security number: 0000121153)</p><hr/><table class=\"grid\"><tr><td style=\"background-color: #f3f5da\" title=\"Known Marital status of Patient\">Marital Status:</td><td colspan=\"3\"><span title=\"Codes:{http://terminology.hl7.org/CodeSystem/v3-MaritalStatus M}\">Married</span></td></tr><tr><td style=\"background-color: #f3f5da\" title=\"Other Id (see the one above)\">Other Id:</td><td colspan=\"3\">Patient internal identifier/0002</td></tr><tr><td style=\"background-color: #f3f5da\" title=\"Ways to contact the Patient\">Contact Detail</td><td colspan=\"3\">Rotenturmstraße 14 Wien 1010 AUT (home)</td></tr></table></div>"
      },
      "identifier" : [{
        "type" : {
          "coding" : [{
            "system" : "http://terminology.hl7.org/CodeSystem/v2-0203",
            "code" : "SS",
            "display" : "Social Security number"
          }]
        },
        "system" : "urn:oid:1.2.40.0.10.1.4.3.1",
        "value" : "0000121153",
        "assigner" : {
          "display" : "Dachverband der österreichischen Sozialversicherungsträger"
        }
      },
      {
        "type" : {
          "coding" : [{
            "system" : "http://terminology.hl7.org/CodeSystem/v2-0203",
            "code" : "PI",
            "display" : "Patient internal identifier"
          }]
        },
        "system" : "urn:oid:1.2.3.4.5",
        "value" : "0002",
        "assigner" : {
          "display" : "Ein GDA in Österreich"
        }
      }],
      "name" : [{
        "family" : "Testpatient",
        "given" : ["Anton"]
      }],
      "gender" : "male",
      "birthDate" : "1953-11-12",
      "address" : [{
        "use" : "home",
        "line" : ["Rotenturmstraße 14"],
        "city" : "Wien",
        "postalCode" : "1010",
        "country" : "AUT"
      }],
      "maritalStatus" : {
        "coding" : [{
          "system" : "http://terminology.hl7.org/CodeSystem/v3-MaritalStatus",
          "code" : "M",
          "display" : "Married"
        }]
      }
    }
  },
  {
    "fullUrl" : "urn:uuid:75db30ee-7028-486c-929a-c5126837f474",
    "resource" : {
      "resourceType" : "Device",
      "id" : "example-iv-5-author-device",
      "meta" : {
        "profile" : ["https://fhir.hl7.at/elga/aps/r4/StructureDefinition/at-aps-device"]
      },
      "text" : {
        "status" : "additional",
        "div" : "<div xmlns=\"http://www.w3.org/1999/xhtml\"><p>Dieses Gerät erzeugt ein APS FHIR-Dokument.</p></div>"
      },
      "deviceName" : [{
        "name" : "APS Generator",
        "type" : "user-friendly-name"
      }],
      "type" : {
        "coding" : [{
          "system" : "http://snomed.info/sct",
          "code" : "49062001",
          "display" : "Gerät"
        }]
      },
      "version" : [{
        "value" : "1.0"
      }],
      "patient" : {
        "reference" : "urn:uuid:0fed5ebe-ca8f-4ad1-aba4-ddad45bd6cc8",
        "display" : "Anton Testpatient"
      }
    }
  },
  {
    "fullUrl" : "urn:uuid:75db30ee-7028-486c-929a-c5126837f473",
    "resource" : {
      "resourceType" : "Practitioner",
      "id" : "example-iv-5-practitioner-2",
      "meta" : {
        "profile" : ["https://fhir.hl7.at/elga/aps/r4/StructureDefinition/at-aps-practitioner"]
      },
      "text" : {
        "status" : "generated",
        "div" : "<div xmlns=\"http://www.w3.org/1999/xhtml\"><a name=\"Practitioner_example-iv-5-practitioner-2\"> </a><p class=\"res-header-id\"><b>Generated Narrative: Practitioner example-iv-5-practitioner-2</b></p><a name=\"example-iv-5-practitioner-2\"> </a><a name=\"hcexample-iv-5-practitioner-2\"> </a><a name=\"example-iv-5-practitioner-2-en-US\"> </a><div style=\"display: inline-block; background-color: #d9e0e7; padding: 6px; margin: 4px; border: 1px solid #8da1b4; border-radius: 5px; line-height: 60%\"><p style=\"margin-bottom: 0px\"/><p style=\"margin-bottom: 0px\">Profile: <a href=\"https://build.fhir.org/ig/HL7Austria/ELGA-AustrianPatientSummary-R4/StructureDefinition-at-aps-practitioner.html\">AT APS Practitioner</a></p></div><p><b>identifier</b>: <a href=\"http://terminology.hl7.org/6.3.0/NamingSystem-uri.html\" title=\"As defined by RFC 3986 (http://www.ietf.org/rfc/rfc3986.txt)(with many schemes defined in many RFCs). For OIDs and UUIDs, use the URN form (urn:oid:(note: lowercase) and urn:uuid:). See http://www.ietf.org/rfc/rfc3001.txt and http://www.ietf.org/rfc/rfc4122.txt \r\n\r\nThis oid is used as an identifier II.root to indicate the the extension is an absolute URI (technically, an IRI). Typically, this is used for OIDs and GUIDs. Note that when this OID is used with OIDs and GUIDs, the II.extension should start with urn:oid or urn:uuid: \r\n\r\nNote that this OID is created to aid with interconversion between CDA and FHIR - FHIR uses urn:ietf:rfc:3986 as equivalent to this OID. URIs as identifiers appear more commonly in FHIR.\r\n\r\nThis OID may also be used in CD.codeSystem.\">Uniform Resource Identifier (URI)</a>/urn:oid:1.2.40.0.10.99.1.2.3.4</p><p><b>name</b>: Hanna Hausärztin </p></div>"
      },
      "identifier" : [{
        "system" : "urn:ietf:rfc:3986",
        "value" : "urn:oid:1.2.40.0.10.99.1.2.3.4",
        "assigner" : {
          "display" : "Bundesministerium für Gesundheit"
        }
      }],
      "name" : [{
        "family" : "Hausärztin",
        "given" : ["Hanna"],
        "prefix" : ["Dr."]
      }]
    }
  },
  {
    "fullUrl" : "urn:uuid:75db30ee-5555-486c-929a-c5126837f473",
    "resource" : {
      "resourceType" : "CareTeam",
      "id" : "example-iv-5-careplan-diabetes-careteam",
      "text" : {
        "status" : "generated",
        "div" : "<div xmlns=\"http://www.w3.org/1999/xhtml\"><a name=\"CareTeam_example-iv-5-careplan-diabetes-careteam\"> </a><p class=\"res-header-id\"><b>Generated Narrative: CareTeam example-iv-5-careplan-diabetes-careteam</b></p><a name=\"example-iv-5-careplan-diabetes-careteam\"> </a><a name=\"hcexample-iv-5-careplan-diabetes-careteam\"> </a><a name=\"example-iv-5-careplan-diabetes-careteam-en-US\"> </a><p><b>name</b>: Careteam von Dr. IV Ärztin</p><p><b>subject</b>: <a href=\"Patient/cc-pat-mae\">Mae</a></p><blockquote><p><b>participant</b></p><p><b>role</b>: <span title=\"Codes:{http://snomed.info/sct 133932002}\">IV Koordinatorin</span></p></blockquote><blockquote><p><b>participant</b></p><p><b>role</b>: <span title=\"Codes:{http://snomed.info/sct 62247001}\">Hausärztin</span></p><p><b>member</b>: <a href=\"Bundle-example-iv-1.html#urn-uuid-75db30ee-7028-486c-929a-c5126837f473\">Dr. Hanna Hausärztin</a></p></blockquote></div>"
      },
      "name" : "Careteam von Dr. IV Ärztin",
      "subject" : {
        "reference" : "Patient/cc-pat-mae",
        "display" : "Mae"
      },
      "participant" : [{
        "role" : [{
          "coding" : [{
            "system" : "http://snomed.info/sct",
            "code" : "133932002",
            "display" : "IV Koordinatorin"
          }],
          "text" : "IV Koordinatorin"
        }]
      },
      {
        "role" : [{
          "coding" : [{
            "system" : "http://snomed.info/sct",
            "code" : "62247001",
            "display" : "Family medicine specialist"
          }],
          "text" : "Hausärztin"
        }],
        "member" : {
          "reference" : "urn:uuid:75db30ee-7028-486c-929a-c5126837f473",
          "display" : "Dr. Hanna Hausärztin"
        }
      }]
    }
  },
  {
    "fullUrl" : "urn:uuid:f6266e6a-f63d-4673-b2de-3dff11e619d6",
    "resource" : {
      "resourceType" : "Organization",
      "id" : "example-iv-5-organization",
      "meta" : {
        "profile" : ["https://fhir.hl7.at/elga/aps/r4/StructureDefinition/at-aps-organization"]
      },
      "text" : {
        "status" : "generated",
        "div" : "<div xmlns=\"http://www.w3.org/1999/xhtml\"><a name=\"Organization_example-iv-5-organization\"> </a><p class=\"res-header-id\"><b>Generated Narrative: Organization example-iv-5-organization</b></p><a name=\"example-iv-5-organization\"> </a><a name=\"hcexample-iv-5-organization\"> </a><a name=\"example-iv-5-organization-en-US\"> </a><div style=\"display: inline-block; background-color: #d9e0e7; padding: 6px; margin: 4px; border: 1px solid #8da1b4; border-radius: 5px; line-height: 60%\"><p style=\"margin-bottom: 0px\"/><p style=\"margin-bottom: 0px\">Profile: <a href=\"https://build.fhir.org/ig/HL7Austria/ELGA-AustrianPatientSummary-R4/StructureDefinition-at-aps-organization.html\">AT APS Organization</a></p></div><p><b>name</b>: Muster-Organization</p></div>"
      },
      "name" : "Muster-Organization"
    }
  },
  {
    "fullUrl" : "urn:uuid:acac4c94-a752-4cf5-9a6b-0d84237d5076",
    "resource" : {
      "resourceType" : "MedicationStatement",
      "id" : "example-iv-5-medication-summary-1",
      "meta" : {
        "profile" : ["https://fhir.hl7.at/elga/aps/r4/StructureDefinition/at-aps-medicationstatement"]
      },
      "text" : {
        "status" : "generated",
        "div" : "<div xmlns=\"http://www.w3.org/1999/xhtml\"><a name=\"MedicationStatement_example-iv-5-medication-summary-1\"> </a><p class=\"res-header-id\"><b>Generated Narrative: MedicationStatement example-iv-5-medication-summary-1</b></p><a name=\"example-iv-5-medication-summary-1\"> </a><a name=\"hcexample-iv-5-medication-summary-1\"> </a><a name=\"example-iv-5-medication-summary-1-en-US\"> </a><div style=\"display: inline-block; background-color: #d9e0e7; padding: 6px; margin: 4px; border: 1px solid #8da1b4; border-radius: 5px; line-height: 60%\"><p style=\"margin-bottom: 0px\"/><p style=\"margin-bottom: 0px\">Profile: <a href=\"https://build.fhir.org/ig/HL7Austria/ELGA-AustrianPatientSummary-R4/StructureDefinition-at-aps-medicationstatement.html\">AT APS MedicationStatement</a></p></div><p><b>status</b>: Active</p><p><b>medication</b>: <span title=\"Codes:{https://termgit.elga.gv.at/CodeSystem/asp-liste 2450888}\">RAMIPRIL 1A TBL  5MG</span></p><p><b>subject</b>: <a href=\"Bundle-example-iv-1.html#urn-uuid-0fed5ebe-ca8f-4ad1-aba4-ddad45bd6cc8\">Anton Testpatient</a></p><p><b>effective</b>: 2016-11-02 11:00:00+0000 --&gt; (ongoing)</p><blockquote><p><b>dosage</b></p><p><b>sequence</b>: 1</p><p><b>text</b>: S:0-0-0-2 / FR</p><p><b>timing</b>: Night, Once</p><p><b>route</b>: <span title=\"Codes:{http://snomed.info/sct 26643006}\">Oraler Verabreichungsweg</span></p><h3>DoseAndRates</h3><table class=\"grid\"><tr><td style=\"display: none\">-</td><td><b>Dose[x]</b></td></tr><tr><td style=\"display: none\">*</td><td>2 Tablet<span style=\"background: LightGoldenRodYellow\"> (Details: elga-medikationmengenart  code{TAB} = '{TAB}')</span></td></tr></table></blockquote></div>"
      },
      "status" : "active",
      "medicationCodeableConcept" : {
        "coding" : [{
          "system" : "https://termgit.elga.gv.at/CodeSystem/asp-liste",
          "code" : "2450888",
          "display" : "RAMIPRIL 1A TBL  5MG"
        }]
      },
      "subject" : {
        "reference" : "urn:uuid:0fed5ebe-ca8f-4ad1-aba4-ddad45bd6cc8",
        "display" : "Anton Testpatient"
      },
      "effectivePeriod" : {
        "start" : "2016-11-02T11:00:00+00:00"
      },
      "dosage" : [{
        "sequence" : 1,
        "text" : "S:0-0-0-2 / FR",
        "timing" : {
          "repeat" : {
            "dayOfWeek" : ["fri"],
            "when" : ["NIGHT"]
          }
        },
        "route" : {
          "coding" : [{
            "system" : "http://snomed.info/sct",
            "code" : "26643006",
            "display" : "Oraler Verabreichungsweg"
          }]
        },
        "doseAndRate" : [{
          "doseQuantity" : {
            "value" : 2,
            "unit" : "Tablet",
            "system" : "https://termgit.elga.gv.at/ValueSet/elga-medikationmengenart",
            "code" : "{TAB}"
          }
        }]
      }]
    }
  },
  {
    "fullUrl" : "urn:uuid:acac4c94-a752-4cf5-9a6b-0d84237d5011",
    "resource" : {
      "resourceType" : "MedicationStatement",
      "id" : "example-iv-5-medication-summary-2",
      "meta" : {
        "profile" : ["https://fhir.hl7.at/elga/aps/r4/StructureDefinition/at-aps-medicationstatement"]
      },
      "text" : {
        "status" : "generated",
        "div" : "<div xmlns=\"http://www.w3.org/1999/xhtml\"><a name=\"MedicationStatement_example-iv-5-medication-summary-2\"> </a><p class=\"res-header-id\"><b>Generated Narrative: MedicationStatement example-iv-5-medication-summary-2</b></p><a name=\"example-iv-5-medication-summary-2\"> </a><a name=\"hcexample-iv-5-medication-summary-2\"> </a><a name=\"example-iv-5-medication-summary-2-en-US\"> </a><div style=\"display: inline-block; background-color: #d9e0e7; padding: 6px; margin: 4px; border: 1px solid #8da1b4; border-radius: 5px; line-height: 60%\"><p style=\"margin-bottom: 0px\"/><p style=\"margin-bottom: 0px\">Profile: <a href=\"https://build.fhir.org/ig/HL7Austria/ELGA-AustrianPatientSummary-R4/StructureDefinition-at-aps-medicationstatement.html\">AT APS MedicationStatement</a></p></div><p><b>status</b>: Active</p><p><b>medication</b>: <span title=\"Codes:{https://termgit.elga.gv.at/CodeSystem/asp-liste 1294446}\">METFORMIN HEX FTBL  500MG</span></p><p><b>subject</b>: <a href=\"Bundle-example-iv-1.html#urn-uuid-0fed5ebe-ca8f-4ad1-aba4-ddad45bd6cc8\">Anton Testpatient</a></p><p><b>effective</b>: 2023-03-17 08:01:30+0100 --&gt; (ongoing)</p><blockquote><p><b>dosage</b></p><p><b>sequence</b>: 1</p><p><b>text</b>: S:0-0-0-2 / FR</p><p><b>timing</b>: Night, Once</p><p><b>route</b>: <span title=\"Codes:{http://snomed.info/sct 26643006}\">Oraler Verabreichungsweg</span></p><h3>DoseAndRates</h3><table class=\"grid\"><tr><td style=\"display: none\">-</td><td><b>Dose[x]</b></td></tr><tr><td style=\"display: none\">*</td><td>2 Tablet<span style=\"background: LightGoldenRodYellow\"> (Details: elga-medikationmengenart  code{TAB} = '{TAB}')</span></td></tr></table></blockquote></div>"
      },
      "status" : "active",
      "medicationCodeableConcept" : {
        "coding" : [{
          "system" : "https://termgit.elga.gv.at/CodeSystem/asp-liste",
          "code" : "1294446",
          "display" : "METFORMIN HEX FTBL  500MG"
        }]
      },
      "subject" : {
        "reference" : "urn:uuid:0fed5ebe-ca8f-4ad1-aba4-ddad45bd6cc8",
        "display" : "Anton Testpatient"
      },
      "effectivePeriod" : {
        "start" : "2023-03-17T08:01:30+01:00"
      },
      "dosage" : [{
        "sequence" : 1,
        "text" : "S:0-0-0-2 / FR",
        "timing" : {
          "repeat" : {
            "dayOfWeek" : ["fri"],
            "when" : ["NIGHT"]
          }
        },
        "route" : {
          "coding" : [{
            "system" : "http://snomed.info/sct",
            "code" : "26643006",
            "display" : "Oraler Verabreichungsweg"
          }]
        },
        "doseAndRate" : [{
          "doseQuantity" : {
            "value" : 2,
            "unit" : "Tablet",
            "system" : "https://termgit.elga.gv.at/ValueSet/elga-medikationmengenart",
            "code" : "{TAB}"
          }
        }]
      }]
    }
  },
  {
    "fullUrl" : "urn:uuid:768eb9cb-00f3-4ab1-bfc2-ff835cb3b89b",
    "resource" : {
      "resourceType" : "AllergyIntolerance",
      "id" : "example-iv-5-allergy-1",
      "meta" : {
        "profile" : ["https://fhir.hl7.at/elga/aps/r4/StructureDefinition/at-aps-allergyintolerance"]
      },
      "text" : {
        "status" : "generated",
        "div" : "<div xmlns=\"http://www.w3.org/1999/xhtml\"><a name=\"AllergyIntolerance_example-iv-5-allergy-1\"> </a><p class=\"res-header-id\"><b>Generated Narrative: AllergyIntolerance example-iv-5-allergy-1</b></p><a name=\"example-iv-5-allergy-1\"> </a><a name=\"hcexample-iv-5-allergy-1\"> </a><a name=\"example-iv-5-allergy-1-en-US\"> </a><div style=\"display: inline-block; background-color: #d9e0e7; padding: 6px; margin: 4px; border: 1px solid #8da1b4; border-radius: 5px; line-height: 60%\"><p style=\"margin-bottom: 0px\"/><p style=\"margin-bottom: 0px\">Profile: <a href=\"https://build.fhir.org/ig/HL7Austria/ELGA-AustrianPatientSummary-R4/StructureDefinition-at-aps-allergyintolerance.html\">AT APS AllergyIntolerance</a></p></div><p><b>clinicalStatus</b>: <span title=\"Codes:{http://terminology.hl7.org/CodeSystem/allergyintolerance-clinical active}\">Active</span></p><p><b>code</b>: <span title=\"Codes:{http://snomed.info/sct 89055006}\">Benzylpenicillin-Natrium</span></p><p><b>patient</b>: <a href=\"Bundle-example-iv-1.html#urn-uuid-0fed5ebe-ca8f-4ad1-aba4-ddad45bd6cc8\">Anton Testpatient</a></p><p><b>asserter</b>: <a href=\"Bundle-example-iv-1.html#urn-uuid-75db30ee-7028-486c-929a-c5126837f473\">Dr. Hausärztin</a></p></div>"
      },
      "clinicalStatus" : {
        "coding" : [{
          "system" : "http://terminology.hl7.org/CodeSystem/allergyintolerance-clinical",
          "code" : "active",
          "display" : "Active"
        }]
      },
      "code" : {
        "coding" : [{
          "system" : "http://snomed.info/sct",
          "code" : "89055006",
          "display" : "Benzylpenicillin-Natrium"
        }]
      },
      "patient" : {
        "reference" : "urn:uuid:0fed5ebe-ca8f-4ad1-aba4-ddad45bd6cc8",
        "display" : "Anton Testpatient"
      },
      "asserter" : {
        "reference" : "urn:uuid:75db30ee-7028-486c-929a-c5126837f473",
        "display" : "Dr. Hausärztin"
      }
    }
  },
  {
    "fullUrl" : "urn:uuid:9d1c0b74-20c1-4603-a95a-71e6a1dc8fde",
    "resource" : {
      "resourceType" : "Condition",
      "id" : "example-iv-5-problem-1",
      "meta" : {
        "profile" : ["https://fhir.hl7.at/elga/aps/r4/StructureDefinition/at-aps-condition"]
      },
      "text" : {
        "status" : "generated",
        "div" : "<div xmlns=\"http://www.w3.org/1999/xhtml\"><a name=\"Condition_example-iv-5-problem-1\"> </a><p class=\"res-header-id\"><b>Generated Narrative: Condition example-iv-5-problem-1</b></p><a name=\"example-iv-5-problem-1\"> </a><a name=\"hcexample-iv-5-problem-1\"> </a><a name=\"example-iv-5-problem-1-en-US\"> </a><div style=\"display: inline-block; background-color: #d9e0e7; padding: 6px; margin: 4px; border: 1px solid #8da1b4; border-radius: 5px; line-height: 60%\"><p style=\"margin-bottom: 0px\"/><p style=\"margin-bottom: 0px\">Profile: <a href=\"https://build.fhir.org/ig/HL7Austria/ELGA-AustrianPatientSummary-R4/StructureDefinition-at-aps-condition.html\">AT APS Condition</a></p></div><p><b>clinicalStatus</b>: <span title=\"Codes:{http://terminology.hl7.org/CodeSystem/condition-clinical active}\">Active</span></p><p><b>verificationStatus</b>: <span title=\"Codes:{http://terminology.hl7.org/CodeSystem/condition-ver-status confirmed}\">Confirmed</span></p><p><b>category</b>: <span title=\"Codes:{http://terminology.hl7.org/CodeSystem/condition-category problem-list-item}\">Problem List Item</span></p><p><b>code</b>: <span title=\"Codes:{http://snomed.info/sct 38341003}\">Arterielle Hypertonie</span></p><p><b>subject</b>: <a href=\"Bundle-example-iv-1.html#urn-uuid-0fed5ebe-ca8f-4ad1-aba4-ddad45bd6cc8\">Anton Testpatient</a></p><p><b>recordedDate</b>: 2016-11-01 11:00:00+0000</p><p><b>asserter</b>: <a href=\"Bundle-example-iv-1.html#urn-uuid-75db30ee-7028-486c-929a-c5126837f473\">Dr. Hanna Hausärztin</a></p></div>"
      },
      "clinicalStatus" : {
        "coding" : [{
          "system" : "http://terminology.hl7.org/CodeSystem/condition-clinical",
          "code" : "active",
          "display" : "Active"
        }]
      },
      "verificationStatus" : {
        "coding" : [{
          "system" : "http://terminology.hl7.org/CodeSystem/condition-ver-status",
          "code" : "confirmed",
          "display" : "Confirmed"
        }]
      },
      "category" : [{
        "coding" : [{
          "system" : "http://terminology.hl7.org/CodeSystem/condition-category",
          "code" : "problem-list-item",
          "display" : "Problem List Item"
        }]
      }],
      "code" : {
        "coding" : [{
          "system" : "http://snomed.info/sct",
          "code" : "38341003",
          "display" : "Arterielle Hypertonie"
        }]
      },
      "subject" : {
        "reference" : "urn:uuid:0fed5ebe-ca8f-4ad1-aba4-ddad45bd6cc8",
        "display" : "Anton Testpatient"
      },
      "recordedDate" : "2016-11-01T11:00:00+00:00",
      "asserter" : {
        "reference" : "urn:uuid:75db30ee-7028-486c-929a-c5126837f473",
        "display" : "Dr. Hanna Hausärztin"
      }
    }
  },
  {
    "fullUrl" : "urn:uuid:8d3a18fb-3610-4bfb-9aa4-1169cc6dd2dd",
    "resource" : {
      "resourceType" : "Condition",
      "id" : "example-iv-5-problem-2",
      "meta" : {
        "profile" : ["https://fhir.hl7.at/elga/aps/r4/StructureDefinition/at-aps-condition"]
      },
      "text" : {
        "status" : "generated",
        "div" : "<div xmlns=\"http://www.w3.org/1999/xhtml\"><a name=\"Condition_example-iv-5-problem-2\"> </a><p class=\"res-header-id\"><b>Generated Narrative: Condition example-iv-5-problem-2</b></p><a name=\"example-iv-5-problem-2\"> </a><a name=\"hcexample-iv-5-problem-2\"> </a><a name=\"example-iv-5-problem-2-en-US\"> </a><div style=\"display: inline-block; background-color: #d9e0e7; padding: 6px; margin: 4px; border: 1px solid #8da1b4; border-radius: 5px; line-height: 60%\"><p style=\"margin-bottom: 0px\"/><p style=\"margin-bottom: 0px\">Profile: <a href=\"https://build.fhir.org/ig/HL7Austria/ELGA-AustrianPatientSummary-R4/StructureDefinition-at-aps-condition.html\">AT APS Condition</a></p></div><p><b>clinicalStatus</b>: <span title=\"Codes:{http://terminology.hl7.org/CodeSystem/condition-clinical active}\">Active</span></p><p><b>verificationStatus</b>: <span title=\"Codes:{http://terminology.hl7.org/CodeSystem/condition-ver-status confirmed}\">Confirmed</span></p><p><b>category</b>: <span title=\"Codes:{http://terminology.hl7.org/CodeSystem/condition-category problem-list-item}\">Problem List Item</span></p><p><b>code</b>: <span title=\"Codes:{http://snomed.info/sct 443371000124107}\">Adipositas</span></p><p><b>subject</b>: <a href=\"Bundle-example-iv-1.html#urn-uuid-0fed5ebe-ca8f-4ad1-aba4-ddad45bd6cc8\">Anton Testpatient</a></p><p><b>recordedDate</b>: 2022-12-01 14:00:00+0000</p><p><b>asserter</b>: <a href=\"Bundle-example-iv-1.html#urn-uuid-75db30ee-7028-486c-929a-c5126837f473\">Dr. Hanna Hausärztin</a></p></div>"
      },
      "clinicalStatus" : {
        "coding" : [{
          "system" : "http://terminology.hl7.org/CodeSystem/condition-clinical",
          "code" : "active",
          "display" : "Active"
        }]
      },
      "verificationStatus" : {
        "coding" : [{
          "system" : "http://terminology.hl7.org/CodeSystem/condition-ver-status",
          "code" : "confirmed",
          "display" : "Confirmed"
        }]
      },
      "category" : [{
        "coding" : [{
          "system" : "http://terminology.hl7.org/CodeSystem/condition-category",
          "code" : "problem-list-item",
          "display" : "Problem List Item"
        }]
      }],
      "code" : {
        "coding" : [{
          "system" : "http://snomed.info/sct",
          "code" : "443371000124107",
          "display" : "Adipositas"
        }]
      },
      "subject" : {
        "reference" : "urn:uuid:0fed5ebe-ca8f-4ad1-aba4-ddad45bd6cc8",
        "display" : "Anton Testpatient"
      },
      "recordedDate" : "2022-12-01T14:00:00+00:00",
      "asserter" : {
        "reference" : "urn:uuid:75db30ee-7028-486c-929a-c5126837f473",
        "display" : "Dr. Hanna Hausärztin"
      }
    }
  },
  {
    "fullUrl" : "urn:uuid:a3a9be59-ec61-4cab-92a9-9cbab6aec437",
    "resource" : {
      "resourceType" : "Condition",
      "id" : "example-iv-5-problem-3",
      "meta" : {
        "profile" : ["https://fhir.hl7.at/elga/aps/r4/StructureDefinition/at-aps-condition"]
      },
      "text" : {
        "status" : "generated",
        "div" : "<div xmlns=\"http://www.w3.org/1999/xhtml\"><a name=\"Condition_example-iv-5-problem-3\"> </a><p class=\"res-header-id\"><b>Generated Narrative: Condition example-iv-5-problem-3</b></p><a name=\"example-iv-5-problem-3\"> </a><a name=\"hcexample-iv-5-problem-3\"> </a><a name=\"example-iv-5-problem-3-en-US\"> </a><div style=\"display: inline-block; background-color: #d9e0e7; padding: 6px; margin: 4px; border: 1px solid #8da1b4; border-radius: 5px; line-height: 60%\"><p style=\"margin-bottom: 0px\"/><p style=\"margin-bottom: 0px\">Profile: <a href=\"https://build.fhir.org/ig/HL7Austria/ELGA-AustrianPatientSummary-R4/StructureDefinition-at-aps-condition.html\">AT APS Condition</a></p></div><p><b>clinicalStatus</b>: <span title=\"Codes:{http://terminology.hl7.org/CodeSystem/condition-clinical active}\">Active</span></p><p><b>verificationStatus</b>: <span title=\"Codes:{http://terminology.hl7.org/CodeSystem/condition-ver-status confirmed}\">Confirmed</span></p><p><b>category</b>: <span title=\"Codes:{http://terminology.hl7.org/CodeSystem/condition-category problem-list-item}\">Problem List Item</span></p><p><b>code</b>: <span title=\"Codes:{http://snomed.info/sct 44054006}\">Diabetes Mellitus Typ 2</span></p><p><b>subject</b>: <a href=\"Bundle-example-iv-1.html#urn-uuid-0fed5ebe-ca8f-4ad1-aba4-ddad45bd6cc8\">Anton Testpatient</a></p><p><b>recordedDate</b>: 2023-03-15 08:00:00+0000</p><p><b>asserter</b>: <a href=\"Bundle-example-iv-1.html#urn-uuid-75db30ee-7028-486c-929a-c5126837f473\">Dr. Hanna Hausärztin</a></p></div>"
      },
      "clinicalStatus" : {
        "coding" : [{
          "system" : "http://terminology.hl7.org/CodeSystem/condition-clinical",
          "code" : "active",
          "display" : "Active"
        }]
      },
      "verificationStatus" : {
        "coding" : [{
          "system" : "http://terminology.hl7.org/CodeSystem/condition-ver-status",
          "code" : "confirmed",
          "display" : "Confirmed"
        }]
      },
      "category" : [{
        "coding" : [{
          "system" : "http://terminology.hl7.org/CodeSystem/condition-category",
          "code" : "problem-list-item",
          "display" : "Problem List Item"
        }]
      }],
      "code" : {
        "coding" : [{
          "system" : "http://snomed.info/sct",
          "code" : "44054006",
          "display" : "Diabetes Mellitus Typ 2"
        }]
      },
      "subject" : {
        "reference" : "urn:uuid:0fed5ebe-ca8f-4ad1-aba4-ddad45bd6cc8",
        "display" : "Anton Testpatient"
      },
      "recordedDate" : "2023-03-15T08:00:00+00:00",
      "asserter" : {
        "reference" : "urn:uuid:75db30ee-7028-486c-929a-c5126837f473",
        "display" : "Dr. Hanna Hausärztin"
      }
    }
  },
  {
    "fullUrl" : "urn:uuid:e66d8ac1-a124-4e94-be22-969c9b117ce5",
    "resource" : {
      "resourceType" : "Condition",
      "id" : "example-iv-5-problem-4",
      "meta" : {
        "profile" : ["https://fhir.hl7.at/elga/aps/r4/StructureDefinition/at-aps-condition"]
      },
      "text" : {
        "status" : "generated",
        "div" : "<div xmlns=\"http://www.w3.org/1999/xhtml\"><a name=\"Condition_example-iv-5-problem-4\"> </a><p class=\"res-header-id\"><b>Generated Narrative: Condition example-iv-5-problem-4</b></p><a name=\"example-iv-5-problem-4\"> </a><a name=\"hcexample-iv-5-problem-4\"> </a><a name=\"example-iv-5-problem-4-en-US\"> </a><div style=\"display: inline-block; background-color: #d9e0e7; padding: 6px; margin: 4px; border: 1px solid #8da1b4; border-radius: 5px; line-height: 60%\"><p style=\"margin-bottom: 0px\"/><p style=\"margin-bottom: 0px\">Profile: <a href=\"https://build.fhir.org/ig/HL7Austria/ELGA-AustrianPatientSummary-R4/StructureDefinition-at-aps-condition.html\">AT APS Condition</a></p></div><p><b>clinicalStatus</b>: <span title=\"Codes:{http://terminology.hl7.org/CodeSystem/condition-clinical active}\">Active</span></p><p><b>verificationStatus</b>: <span title=\"Codes:{http://terminology.hl7.org/CodeSystem/condition-ver-status confirmed}\">Confirmed</span></p><p><b>category</b>: <span title=\"Codes:{http://terminology.hl7.org/CodeSystem/condition-category problem-list-item}\">Problem List Item</span></p><p><b>code</b>: <span title=\"Codes:{http://snomed.info/sct 134439009}\">Familienanamnese: vorzeitige koronare Herzkrankheit</span></p><p><b>subject</b>: <a href=\"Bundle-example-iv-1.html#urn-uuid-0fed5ebe-ca8f-4ad1-aba4-ddad45bd6cc8\">Anton Testpatient</a></p><p><b>recordedDate</b>: 2022-12-01 14:00:00+0000</p><p><b>asserter</b>: <a href=\"Bundle-example-iv-1.html#urn-uuid-75db30ee-7028-486c-929a-c5126837f473\">Dr. Hanna Hausärztin</a></p></div>"
      },
      "clinicalStatus" : {
        "coding" : [{
          "system" : "http://terminology.hl7.org/CodeSystem/condition-clinical",
          "code" : "active",
          "display" : "Active"
        }]
      },
      "verificationStatus" : {
        "coding" : [{
          "system" : "http://terminology.hl7.org/CodeSystem/condition-ver-status",
          "code" : "confirmed",
          "display" : "Confirmed"
        }]
      },
      "category" : [{
        "coding" : [{
          "system" : "http://terminology.hl7.org/CodeSystem/condition-category",
          "code" : "problem-list-item",
          "display" : "Problem List Item"
        }]
      }],
      "code" : {
        "coding" : [{
          "system" : "http://snomed.info/sct",
          "code" : "134439009",
          "display" : "Familienanamnese: vorzeitige koronare Herzkrankheit"
        }]
      },
      "subject" : {
        "reference" : "urn:uuid:0fed5ebe-ca8f-4ad1-aba4-ddad45bd6cc8",
        "display" : "Anton Testpatient"
      },
      "recordedDate" : "2022-12-01T14:00:00+00:00",
      "asserter" : {
        "reference" : "urn:uuid:75db30ee-7028-486c-929a-c5126837f473",
        "display" : "Dr. Hanna Hausärztin"
      }
    }
  },
  {
    "fullUrl" : "urn:uuid:e66d8ac1-a124-4e94-be22-969c9b117ce6",
    "resource" : {
      "resourceType" : "Condition",
      "id" : "example-iv-5-problem-5",
      "meta" : {
        "profile" : ["https://fhir.hl7.at/elga/aps/r4/StructureDefinition/at-aps-condition"]
      },
      "text" : {
        "status" : "generated",
        "div" : "<div xmlns=\"http://www.w3.org/1999/xhtml\"><a name=\"Condition_example-iv-5-problem-5\"> </a><p class=\"res-header-id\"><b>Generated Narrative: Condition example-iv-5-problem-5</b></p><a name=\"example-iv-5-problem-5\"> </a><a name=\"hcexample-iv-5-problem-5\"> </a><a name=\"example-iv-5-problem-5-en-US\"> </a><div style=\"display: inline-block; background-color: #d9e0e7; padding: 6px; margin: 4px; border: 1px solid #8da1b4; border-radius: 5px; line-height: 60%\"><p style=\"margin-bottom: 0px\"/><p style=\"margin-bottom: 0px\">Profile: <a href=\"https://build.fhir.org/ig/HL7Austria/ELGA-AustrianPatientSummary-R4/StructureDefinition-at-aps-condition.html\">AT APS Condition</a></p></div><p><b>clinicalStatus</b>: <span title=\"Codes:{http://terminology.hl7.org/CodeSystem/condition-clinical active}\">Active</span></p><p><b>verificationStatus</b>: <span title=\"Codes:{http://terminology.hl7.org/CodeSystem/condition-ver-status confirmed}\">Confirmed</span></p><p><b>category</b>: <span title=\"Codes:{http://terminology.hl7.org/CodeSystem/condition-category problem-list-item}\">Problem List Item</span></p><p><b>code</b>: <span title=\"Codes:{http://snomed.info/sct 160303001}\">Diabetes mellitus in der Familienanamnese</span></p><p><b>subject</b>: <a href=\"Bundle-example-iv-1.html#urn-uuid-0fed5ebe-ca8f-4ad1-aba4-ddad45bd6cc8\">Anton Testpatient</a></p><p><b>recordedDate</b>: 2022-12-01 14:00:00+0000</p><p><b>asserter</b>: <a href=\"Bundle-example-iv-1.html#urn-uuid-75db30ee-7028-486c-929a-c5126837f473\">Dr. Hanna Hausärztin</a></p></div>"
      },
      "clinicalStatus" : {
        "coding" : [{
          "system" : "http://terminology.hl7.org/CodeSystem/condition-clinical",
          "code" : "active",
          "display" : "Active"
        }]
      },
      "verificationStatus" : {
        "coding" : [{
          "system" : "http://terminology.hl7.org/CodeSystem/condition-ver-status",
          "code" : "confirmed",
          "display" : "Confirmed"
        }]
      },
      "category" : [{
        "coding" : [{
          "system" : "http://terminology.hl7.org/CodeSystem/condition-category",
          "code" : "problem-list-item",
          "display" : "Problem List Item"
        }]
      }],
      "code" : {
        "coding" : [{
          "system" : "http://snomed.info/sct",
          "code" : "160303001",
          "display" : "Diabetes mellitus in der Familienanamnese"
        }]
      },
      "subject" : {
        "reference" : "urn:uuid:0fed5ebe-ca8f-4ad1-aba4-ddad45bd6cc8",
        "display" : "Anton Testpatient"
      },
      "recordedDate" : "2022-12-01T14:00:00+00:00",
      "asserter" : {
        "reference" : "urn:uuid:75db30ee-7028-486c-929a-c5126837f473",
        "display" : "Dr. Hanna Hausärztin"
      }
    }
  },
  {
    "fullUrl" : "urn:uuid:75c46c35-8f4e-4232-b026-5672c60d076a",
    "resource" : {
      "resourceType" : "Procedure",
      "id" : "example-iv-5-procedure-history-1",
      "meta" : {
        "profile" : ["https://fhir.hl7.at/elga/aps/r4/StructureDefinition/at-aps-procedure"]
      },
      "text" : {
        "status" : "generated",
        "div" : "<div xmlns=\"http://www.w3.org/1999/xhtml\"><a name=\"Procedure_example-iv-5-procedure-history-1\"> </a><p class=\"res-header-id\"><b>Generated Narrative: Procedure example-iv-5-procedure-history-1</b></p><a name=\"example-iv-5-procedure-history-1\"> </a><a name=\"hcexample-iv-5-procedure-history-1\"> </a><a name=\"example-iv-5-procedure-history-1-en-US\"> </a><div style=\"display: inline-block; background-color: #d9e0e7; padding: 6px; margin: 4px; border: 1px solid #8da1b4; border-radius: 5px; line-height: 60%\"><p style=\"margin-bottom: 0px\"/><p style=\"margin-bottom: 0px\">Profile: <a href=\"https://build.fhir.org/ig/HL7Austria/ELGA-AustrianPatientSummary-R4/StructureDefinition-at-aps-procedure.html\">AT APS Procedure</a></p></div><p><b>status</b>: Completed</p><p><b>code</b>: <span title=\"Codes:{http://snomed.info/sct 770606008}\">Totalersatz des linken Hüftgelenks</span></p><p><b>subject</b>: <a href=\"Bundle-example-iv-1.html#urn-uuid-0fed5ebe-ca8f-4ad1-aba4-ddad45bd6cc8\">Anton Testpatient</a></p><p><b>performed</b>: 2010</p><h3>FocalDevices</h3><table class=\"grid\"><tr><td style=\"display: none\">-</td><td><b>Manipulated</b></td></tr><tr><td style=\"display: none\">*</td><td><a href=\"Bundle-example-iv-1.html#urn-uuid-490dab5c-271e-4736-8a6b-5f6f089d0a22\">Hüftprothese</a></td></tr></table></div>"
      },
      "status" : "completed",
      "code" : {
        "coding" : [{
          "system" : "http://snomed.info/sct",
          "code" : "770606008",
          "display" : "Totalersatz des linken Hüftgelenks"
        }]
      },
      "subject" : {
        "reference" : "urn:uuid:0fed5ebe-ca8f-4ad1-aba4-ddad45bd6cc8",
        "display" : "Anton Testpatient"
      },
      "performedDateTime" : "2010",
      "focalDevice" : [{
        "manipulated" : {
          "reference" : "urn:uuid:490dab5c-271e-4736-8a6b-5f6f089d0a22",
          "display" : "Hüftprothese"
        }
      }]
    }
  },
  {
    "fullUrl" : "urn:uuid:490dab5c-271e-4736-8a6b-5f6f089d0a11",
    "resource" : {
      "resourceType" : "DeviceUseStatement",
      "id" : "example-iv-5-medical-deviceUse-Hueftprothese",
      "meta" : {
        "profile" : ["https://fhir.hl7.at/elga/aps/r4/StructureDefinition/at-aps-deviceusestatement"]
      },
      "text" : {
        "status" : "generated",
        "div" : "<div xmlns=\"http://www.w3.org/1999/xhtml\"><a name=\"DeviceUseStatement_example-iv-5-medical-deviceUse-Hueftprothese\"> </a><p class=\"res-header-id\"><b>Generated Narrative: DeviceUseStatement example-iv-5-medical-deviceUse-Hueftprothese</b></p><a name=\"example-iv-5-medical-deviceUse-Hueftprothese\"> </a><a name=\"hcexample-iv-5-medical-deviceUse-Hueftprothese\"> </a><a name=\"example-iv-5-medical-deviceUse-Hueftprothese-en-US\"> </a><div style=\"display: inline-block; background-color: #d9e0e7; padding: 6px; margin: 4px; border: 1px solid #8da1b4; border-radius: 5px; line-height: 60%\"><p style=\"margin-bottom: 0px\"/><p style=\"margin-bottom: 0px\">Profile: <a href=\"https://build.fhir.org/ig/HL7Austria/ELGA-AustrianPatientSummary-R4/StructureDefinition-at-aps-deviceusestatement.html\">AT APS DeviceUseStatement</a></p></div><p><b>status</b>: Active</p><p><b>subject</b>: <a href=\"Bundle-example-iv-1.html#urn-uuid-0fed5ebe-ca8f-4ad1-aba4-ddad45bd6cc8\">Anton Testpatient</a></p><p><b>timing</b>: 2020 --&gt; (ongoing)</p><p><b>device</b>: <a href=\"Bundle-example-iv-1.html#urn-uuid-490dab5c-271e-4736-8a6b-5f6f089d0a22\">Verwendetes Gerät: Hüftprothese</a></p><p><b>bodySite</b>: <span title=\"Codes:{http://snomed.info/sct 362905007}\">Gesamtes linkes Hüftgelenk</span></p></div>"
      },
      "status" : "active",
      "subject" : {
        "reference" : "urn:uuid:0fed5ebe-ca8f-4ad1-aba4-ddad45bd6cc8",
        "display" : "Anton Testpatient"
      },
      "timingPeriod" : {
        "start" : "2020"
      },
      "device" : {
        "reference" : "urn:uuid:490dab5c-271e-4736-8a6b-5f6f089d0a22",
        "display" : "Verwendetes Gerät: Hüftprothese"
      },
      "bodySite" : {
        "coding" : [{
          "system" : "http://snomed.info/sct",
          "code" : "362905007",
          "display" : "Gesamtes linkes Hüftgelenk"
        }]
      }
    }
  },
  {
    "fullUrl" : "urn:uuid:490dab5c-271e-4736-8a6b-5f6f089d0a22",
    "resource" : {
      "resourceType" : "Device",
      "id" : "example-iv-5-medical-device-Hueftprothese",
      "meta" : {
        "profile" : ["https://fhir.hl7.at/elga/aps/r4/StructureDefinition/at-aps-device"]
      },
      "text" : {
        "status" : "generated",
        "div" : "<div xmlns=\"http://www.w3.org/1999/xhtml\"><a name=\"Device_example-iv-5-medical-device-Hueftprothese\"> </a><p class=\"res-header-id\"><b>Generated Narrative: Device example-iv-5-medical-device-Hueftprothese</b></p><a name=\"example-iv-5-medical-device-Hueftprothese\"> </a><a name=\"hcexample-iv-5-medical-device-Hueftprothese\"> </a><a name=\"example-iv-5-medical-device-Hueftprothese-en-US\"> </a><div style=\"display: inline-block; background-color: #d9e0e7; padding: 6px; margin: 4px; border: 1px solid #8da1b4; border-radius: 5px; line-height: 60%\"><p style=\"margin-bottom: 0px\"/><p style=\"margin-bottom: 0px\">Profile: <a href=\"https://build.fhir.org/ig/HL7Austria/ELGA-AustrianPatientSummary-R4/StructureDefinition-at-aps-device.html\">AT APS Device</a></p></div><h3>DeviceNames</h3><table class=\"grid\"><tr><td style=\"display: none\">-</td><td><b>Name</b></td><td><b>Type</b></td></tr><tr><td style=\"display: none\">*</td><td>Hüftprothese</td><td>other</td></tr></table><p><b>type</b>: <span title=\"Codes:{http://snomed.info/sct 67270000}\">Hüftprothese</span></p><h3>Versions</h3><table class=\"grid\"><tr><td style=\"display: none\">-</td><td><b>Value</b></td></tr><tr><td style=\"display: none\">*</td><td>123456</td></tr></table><p><b>patient</b>: <a href=\"Bundle-example-iv-1.html#urn-uuid-0fed5ebe-ca8f-4ad1-aba4-ddad45bd6cc8\">Anton Testpatient</a></p></div>"
      },
      "deviceName" : [{
        "name" : "Hüftprothese",
        "type" : "other"
      }],
      "type" : {
        "coding" : [{
          "system" : "http://snomed.info/sct",
          "code" : "67270000",
          "display" : "Hüftprothese"
        }]
      },
      "version" : [{
        "value" : "123456"
      }],
      "patient" : {
        "reference" : "urn:uuid:0fed5ebe-ca8f-4ad1-aba4-ddad45bd6cc8",
        "display" : "Anton Testpatient"
      }
    }
  },
  {
    "fullUrl" : "urn:uuid:590dab5c-271e-4736-8a6b-d04fd2a04607",
    "resource" : {
      "resourceType" : "Immunization",
      "id" : "example-iv-5-Immunization-1",
      "meta" : {
        "profile" : ["https://fhir.hl7.at/elga/aps/r4/StructureDefinition/at-aps-immunization"]
      },
      "text" : {
        "status" : "generated",
        "div" : "<div xmlns=\"http://www.w3.org/1999/xhtml\"><a name=\"Immunization_example-iv-5-Immunization-1\"> </a><p class=\"res-header-id\"><b>Generated Narrative: Immunization example-iv-5-Immunization-1</b></p><a name=\"example-iv-5-Immunization-1\"> </a><a name=\"hcexample-iv-5-Immunization-1\"> </a><a name=\"example-iv-5-Immunization-1-en-US\"> </a><div style=\"display: inline-block; background-color: #d9e0e7; padding: 6px; margin: 4px; border: 1px solid #8da1b4; border-radius: 5px; line-height: 60%\"><p style=\"margin-bottom: 0px\"/><p style=\"margin-bottom: 0px\">Profile: <a href=\"https://build.fhir.org/ig/HL7Austria/ELGA-AustrianPatientSummary-R4/StructureDefinition-at-aps-immunization.html\">AT APS Immunization</a></p></div><p><b>status</b>: Completed</p><p><b>vaccineCode</b>: <span title=\"Codes:{https://termgit.elga.gv.at/ValueSet/eimpf-impfstoffe 2457324}\">Diphtherie-Pertussis-Poliomyelitis-Tetanus</span></p><p><b>patient</b>: <a href=\"Bundle-example-iv-1.html#urn-uuid-0fed5ebe-ca8f-4ad1-aba4-ddad45bd6cc8\">Anton Testpatient</a></p><p><b>occurrence</b>: 2025-01-08 14:31:30+0000</p><p><b>route</b>: <span title=\"Codes:{https://termgit.elga.gv.at/ValueSet/eimpf-medikationartanwendung IM}\">Intramuskulär</span></p><h3>Performers</h3><table class=\"grid\"><tr><td style=\"display: none\">-</td><td><b>Actor</b></td></tr><tr><td style=\"display: none\">*</td><td><a href=\"Bundle-example-iv-1.html#urn-uuid-75db30ee-7028-486c-929a-c5126837f473\">Dr. Hanna Hausärztin</a></td></tr></table><blockquote><p><b>protocolApplied</b></p><p><b>targetDisease</b>: <span title=\"Codes:{https://termgit.elga.gv.at/ValueSet/eimpf-immunizationtarget 397430003}\">Diphtheria</span>, <span title=\"Codes:{https://termgit.elga.gv.at/ValueSet/eimpf-immunizationtarget 27836007}\">Pertussis</span>, <span title=\"Codes:{https://termgit.elga.gv.at/ValueSet/eimpf-immunizationtarget 398102009}\">Poliomyelitis</span>, <span title=\"Codes:{https://termgit.elga.gv.at/ValueSet/eimpf-immunizationtarget 76902006}\">Tetanus</span></p><p><b>doseNumber</b>: 1</p></blockquote></div>"
      },
      "status" : "completed",
      "vaccineCode" : {
        "coding" : [{
          "system" : "https://termgit.elga.gv.at/ValueSet/eimpf-impfstoffe",
          "code" : "2457324",
          "display" : "BOOSTRIX POLIO FSPR 0,5ML"
        }],
        "text" : "Diphtherie-Pertussis-Poliomyelitis-Tetanus"
      },
      "patient" : {
        "reference" : "urn:uuid:0fed5ebe-ca8f-4ad1-aba4-ddad45bd6cc8",
        "display" : "Anton Testpatient"
      },
      "occurrenceDateTime" : "2025-01-08T14:31:30+00:00",
      "route" : {
        "coding" : [{
          "system" : "https://termgit.elga.gv.at/ValueSet/eimpf-medikationartanwendung",
          "code" : "IM",
          "display" : "Intramuskulär"
        }]
      },
      "performer" : [{
        "actor" : {
          "reference" : "urn:uuid:75db30ee-7028-486c-929a-c5126837f473",
          "display" : "Dr. Hanna Hausärztin"
        }
      }],
      "protocolApplied" : [{
        "targetDisease" : [{
          "coding" : [{
            "system" : "https://termgit.elga.gv.at/ValueSet/eimpf-immunizationtarget",
            "code" : "397430003",
            "display" : "Diphtheria"
          }]
        },
        {
          "coding" : [{
            "system" : "https://termgit.elga.gv.at/ValueSet/eimpf-immunizationtarget",
            "code" : "27836007",
            "display" : "Pertussis"
          }]
        },
        {
          "coding" : [{
            "system" : "https://termgit.elga.gv.at/ValueSet/eimpf-immunizationtarget",
            "code" : "398102009",
            "display" : "Poliomyelitis"
          }]
        },
        {
          "coding" : [{
            "system" : "https://termgit.elga.gv.at/ValueSet/eimpf-immunizationtarget",
            "code" : "76902006",
            "display" : "Tetanus"
          }]
        }],
        "doseNumberPositiveInt" : 1
      }]
    }
  },
  {
    "fullUrl" : "urn:uuid:725bcf71-22e6-473b-a879-49a4b63cd654",
    "resource" : {
      "resourceType" : "Observation",
      "id" : "example-iv-5-diagnostic-result-1",
      "meta" : {
        "profile" : ["https://fhir.hl7.at/elga/aps/r4/StructureDefinition/at-aps-observationresultslaboratorypathology"]
      },
      "text" : {
        "status" : "generated",
        "div" : "<div xmlns=\"http://www.w3.org/1999/xhtml\"><a name=\"Observation_example-iv-5-diagnostic-result-1\"> </a><p class=\"res-header-id\"><b>Generated Narrative: Observation example-iv-5-diagnostic-result-1</b></p><a name=\"example-iv-5-diagnostic-result-1\"> </a><a name=\"hcexample-iv-5-diagnostic-result-1\"> </a><a name=\"example-iv-5-diagnostic-result-1-en-US\"> </a><div style=\"display: inline-block; background-color: #d9e0e7; padding: 6px; margin: 4px; border: 1px solid #8da1b4; border-radius: 5px; line-height: 60%\"><p style=\"margin-bottom: 0px\"/><p style=\"margin-bottom: 0px\">Profile: <a href=\"https://build.fhir.org/ig/HL7Austria/ELGA-AustrianPatientSummary-R4/StructureDefinition-at-aps-observationresultslaboratorypathology.html\">AT APS Observation Results Laboratory Pathology</a></p></div><p><b>status</b>: Final</p><p><b>category</b>: <span title=\"Codes:{http://terminology.hl7.org/CodeSystem/observation-category laboratory}\">Laboratory</span></p><p><b>code</b>: <span title=\"Codes:{http://loinc.org 32016-8}\">Glucose im kapillaren Blut 1h postprandial</span></p><p><b>subject</b>: <a href=\"Bundle-example-iv-1.html#urn-uuid-0fed5ebe-ca8f-4ad1-aba4-ddad45bd6cc8\">Anton Testpatient</a></p><p><b>effective</b>: 2023-03-15 08:00:00+0000</p><p><b>performer</b>: <a href=\"Bundle-example-iv-1.html#urn-uuid-75db30ee-7028-486c-929a-c5126837f473\">Dr. Hanna Hausärztin</a></p><p><b>value</b>: 250 mg/dL<span style=\"background: LightGoldenRodYellow\"> (Details: UCUM  codemg/dL = 'mg/dL')</span></p><p><b>specimen</b>: <a href=\"Bundle-example-iv-2.html#urn-uuid-e3567418-073e-4fd7-af4e-5fd7ee4785f7\">example-iv-5-diagnostic-specimen-1</a></p></div>"
      },
      "status" : "final",
      "category" : [{
        "coding" : [{
          "system" : "http://terminology.hl7.org/CodeSystem/observation-category",
          "code" : "laboratory",
          "display" : "Laboratory"
        }]
      }],
      "code" : {
        "coding" : [{
          "system" : "http://loinc.org",
          "code" : "32016-8",
          "display" : "Glucose im kapillaren Blut 1h postprandial"
        }]
      },
      "subject" : {
        "reference" : "urn:uuid:0fed5ebe-ca8f-4ad1-aba4-ddad45bd6cc8",
        "display" : "Anton Testpatient"
      },
      "effectiveDateTime" : "2023-03-15T08:00:00+00:00",
      "performer" : [{
        "reference" : "urn:uuid:75db30ee-7028-486c-929a-c5126837f473",
        "display" : "Dr. Hanna Hausärztin"
      }],
      "valueQuantity" : {
        "value" : 250,
        "unit" : "mg/dL",
        "system" : "http://unitsofmeasure.org",
        "code" : "mg/dL"
      },
      "specimen" : {
        "reference" : "urn:uuid:e3567418-073e-4fd7-af4e-5fd7ee4785f7",
        "display" : "example-iv-5-diagnostic-specimen-1"
      }
    }
  },
  {
    "fullUrl" : "urn:uuid:aeff2319-2cc2-4fba-9541-7a4de3d20f91",
    "resource" : {
      "resourceType" : "Observation",
      "id" : "example-iv-5-diagnostic-result-2",
      "meta" : {
        "profile" : ["https://fhir.hl7.at/elga/aps/r4/StructureDefinition/at-aps-observationresultslaboratorypathology"]
      },
      "text" : {
        "status" : "generated",
        "div" : "<div xmlns=\"http://www.w3.org/1999/xhtml\"><a name=\"Observation_example-iv-5-diagnostic-result-2\"> </a><p class=\"res-header-id\"><b>Generated Narrative: Observation example-iv-5-diagnostic-result-2</b></p><a name=\"example-iv-5-diagnostic-result-2\"> </a><a name=\"hcexample-iv-5-diagnostic-result-2\"> </a><a name=\"example-iv-5-diagnostic-result-2-en-US\"> </a><div style=\"display: inline-block; background-color: #d9e0e7; padding: 6px; margin: 4px; border: 1px solid #8da1b4; border-radius: 5px; line-height: 60%\"><p style=\"margin-bottom: 0px\"/><p style=\"margin-bottom: 0px\">Profile: <a href=\"https://build.fhir.org/ig/HL7Austria/ELGA-AustrianPatientSummary-R4/StructureDefinition-at-aps-observationresultslaboratorypathology.html\">AT APS Observation Results Laboratory Pathology</a></p></div><p><b>status</b>: Final</p><p><b>category</b>: <span title=\"Codes:{http://terminology.hl7.org/CodeSystem/observation-category laboratory}\">Laboratory</span></p><p><b>code</b>: <span title=\"Codes:{http://loinc.org 4548-4}\">Hemoglobin A1c/Hemoglobin.total in Blood</span></p><p><b>subject</b>: <a href=\"Bundle-example-iv-1.html#urn-uuid-0fed5ebe-ca8f-4ad1-aba4-ddad45bd6cc8\">Bundle: identifier = http://system-to-be-defined.com#63fef90a-be11-4ddf-aece-d77da15c4f20; type = document; timestamp = 2025-03-15 14:01:30+0000</a></p><p><b>effective</b>: 2023-03-16 09:30:00+0100</p><p><b>performer</b>: <a href=\"Bundle-example-iv-3.html#urn-uuid-82f802a7-56a9-49b4-a675-95da08f0d7a6\">Amadeus Spital - Labor</a></p><p><b>value</b>: 8.1 %<span style=\"background: LightGoldenRodYellow\"> (Details: UCUM  code% = '%')</span></p><p><b>specimen</b>: <a href=\"Bundle-example-iv-2.html#urn-uuid-e3567418-073e-4fd7-af4e-5fd7ee4785f7\">example-iv-5-diagnostic-specimen-1</a></p></div>"
      },
      "status" : "final",
      "category" : [{
        "coding" : [{
          "system" : "http://terminology.hl7.org/CodeSystem/observation-category",
          "code" : "laboratory",
          "display" : "Laboratory"
        }]
      }],
      "code" : {
        "coding" : [{
          "system" : "http://loinc.org",
          "code" : "4548-4",
          "display" : "Hemoglobin A1c/Hemoglobin.total in Blood"
        }]
      },
      "subject" : {
        "reference" : "urn:uuid:0fed5ebe-ca8f-4ad1-aba4-ddad45bd6cc8"
      },
      "effectiveDateTime" : "2023-03-16T09:30:00+01:00",
      "performer" : [{
        "reference" : "urn:uuid:82f802a7-56a9-49b4-a675-95da08f0d7a6",
        "display" : "Amadeus Spital - Labor"
      }],
      "valueQuantity" : {
        "value" : 8.1,
        "unit" : "%",
        "system" : "http://unitsofmeasure.org",
        "code" : "%"
      },
      "specimen" : {
        "reference" : "urn:uuid:e3567418-073e-4fd7-af4e-5fd7ee4785f7",
        "display" : "example-iv-5-diagnostic-specimen-1"
      }
    }
  },
  {
    "fullUrl" : "urn:uuid:d16dce15-bc5a-48a5-910e-6ac039785a2a",
    "resource" : {
      "resourceType" : "Observation",
      "id" : "example-iv-5-diagnostic-result-2",
      "meta" : {
        "profile" : ["https://fhir.hl7.at/elga/aps/r4/StructureDefinition/at-aps-observationresultslaboratorypathology"]
      },
      "text" : {
        "status" : "generated",
        "div" : "<div xmlns=\"http://www.w3.org/1999/xhtml\"><a name=\"Observation_example-iv-5-diagnostic-result-2\"> </a><p class=\"res-header-id\"><b>Generated Narrative: Observation example-iv-5-diagnostic-result-2</b></p><div style=\"display: inline-block; background-color: #d9e0e7; padding: 6px; margin: 4px; border: 1px solid #8da1b4; border-radius: 5px; line-height: 60%\"><p style=\"margin-bottom: 0px\"/><p style=\"margin-bottom: 0px\">Profile: <a href=\"https://build.fhir.org/ig/HL7Austria/ELGA-AustrianPatientSummary-R4/StructureDefinition-at-aps-observationresultslaboratorypathology.html\">AT APS Observation Results Laboratory Pathology</a></p></div><p><b>status</b>: Final</p><p><b>category</b>: <span title=\"Codes:{http://terminology.hl7.org/CodeSystem/observation-category laboratory}\">Laboratory</span></p><p><b>code</b>: <span title=\"Codes:{http://loinc.org 2160-0}\">Kreatinin in Serum</span></p><p><b>subject</b>: <a href=\"Bundle-example-iv-1.html#urn-uuid-0fed5ebe-ca8f-4ad1-aba4-ddad45bd6cc8\">Bundle: identifier = http://system-to-be-defined.com#63fef90a-be11-4ddf-aece-d77da15c4f20; type = document; timestamp = 2025-03-15 14:01:30+0000</a></p><p><b>effective</b>: 2023-03-16 09:30:00+0100</p><p><b>performer</b>: <a href=\"Bundle-example-iv-3.html#urn-uuid-82f802a7-56a9-49b4-a675-95da08f0d7a6\">Amadeus Spital - Labor</a></p><p><b>value</b>: 1.2 mg/dL<span style=\"background: LightGoldenRodYellow\"> (Details: UCUM  codemg/dL = 'mg/dL')</span></p><p><b>specimen</b>: <a href=\"Bundle-example-iv-2.html#urn-uuid-e3567418-073e-4fd7-af4e-5fd7ee4785f7\">example-iv-5-diagnostic-specimen-1</a></p></div>"
      },
      "status" : "final",
      "category" : [{
        "coding" : [{
          "system" : "http://terminology.hl7.org/CodeSystem/observation-category",
          "code" : "laboratory",
          "display" : "Laboratory"
        }]
      }],
      "code" : {
        "coding" : [{
          "system" : "http://loinc.org",
          "code" : "2160-0",
          "display" : "Kreatinin in Serum"
        }]
      },
      "subject" : {
        "reference" : "urn:uuid:0fed5ebe-ca8f-4ad1-aba4-ddad45bd6cc8"
      },
      "effectiveDateTime" : "2023-03-16T09:30:00+01:00",
      "performer" : [{
        "reference" : "urn:uuid:82f802a7-56a9-49b4-a675-95da08f0d7a6",
        "display" : "Amadeus Spital - Labor"
      }],
      "valueQuantity" : {
        "value" : 1.2,
        "unit" : "mg/dL",
        "system" : "http://unitsofmeasure.org",
        "code" : "mg/dL"
      },
      "specimen" : {
        "reference" : "urn:uuid:e3567418-073e-4fd7-af4e-5fd7ee4785f7",
        "display" : "example-iv-5-diagnostic-specimen-1"
      }
    }
  },
  {
    "fullUrl" : "urn:uuid:82f802a7-56a9-49b4-a675-95da08f0d7a6",
    "resource" : {
      "resourceType" : "Organization",
      "id" : "example-iv-5-diagnostic-result-performer-1",
      "meta" : {
        "profile" : ["https://fhir.hl7.at/elga/aps/r4/StructureDefinition/at-aps-organization"]
      },
      "text" : {
        "status" : "generated",
        "div" : "<div xmlns=\"http://www.w3.org/1999/xhtml\"><a name=\"Organization_example-iv-5-diagnostic-result-performer-1\"> </a><p class=\"res-header-id\"><b>Generated Narrative: Organization example-iv-5-diagnostic-result-performer-1</b></p><a name=\"example-iv-5-diagnostic-result-performer-1\"> </a><a name=\"hcexample-iv-5-diagnostic-result-performer-1\"> </a><a name=\"example-iv-5-diagnostic-result-performer-1-en-US\"> </a><div style=\"display: inline-block; background-color: #d9e0e7; padding: 6px; margin: 4px; border: 1px solid #8da1b4; border-radius: 5px; line-height: 60%\"><p style=\"margin-bottom: 0px\"/><p style=\"margin-bottom: 0px\">Profile: <a href=\"https://build.fhir.org/ig/HL7Austria/ELGA-AustrianPatientSummary-R4/StructureDefinition-at-aps-organization.html\">AT APS Organization</a></p></div><p><b>identifier</b>: <a href=\"http://terminology.hl7.org/6.3.0/NamingSystem-uri.html\" title=\"As defined by RFC 3986 (http://www.ietf.org/rfc/rfc3986.txt)(with many schemes defined in many RFCs). For OIDs and UUIDs, use the URN form (urn:oid:(note: lowercase) and urn:uuid:). See http://www.ietf.org/rfc/rfc3001.txt and http://www.ietf.org/rfc/rfc4122.txt \r\n\r\nThis oid is used as an identifier II.root to indicate the the extension is an absolute URI (technically, an IRI). Typically, this is used for OIDs and GUIDs. Note that when this OID is used with OIDs and GUIDs, the II.extension should start with urn:oid or urn:uuid: \r\n\r\nNote that this OID is created to aid with interconversion between CDA and FHIR - FHIR uses urn:ietf:rfc:3986 as equivalent to this OID. URIs as identifiers appear more commonly in FHIR.\r\n\r\nThis OID may also be used in CD.codeSystem.\">Uniform Resource Identifier (URI)</a>/urn:oid:1.2.40.0.34.99.4613</p><p><b>name</b>: Amadeus Spital - Labor</p><p><b>telecom</b>: <a href=\"tel:+43.1.3453446.0\">+43.1.3453446.0</a>, fax: +43.1.3453446.4674, <a href=\"mailto:info@amadeusspital.at\">info@amadeusspital.at</a>, <a href=\"https://www.amadeusspital.at\">https://www.amadeusspital.at</a></p><p><b>address</b>: Währinger Gürtel 18-20 Wien 1090 AUT </p></div>"
      },
      "identifier" : [{
        "system" : "urn:ietf:rfc:3986",
        "value" : "urn:oid:1.2.40.0.34.99.4613",
        "assigner" : {
          "display" : "Bundesministerium für Gesundheit"
        }
      }],
      "name" : "Amadeus Spital - Labor",
      "telecom" : [{
        "system" : "phone",
        "value" : "+43.1.3453446.0"
      },
      {
        "system" : "fax",
        "value" : "+43.1.3453446.4674"
      },
      {
        "system" : "email",
        "value" : "info@amadeusspital.at"
      },
      {
        "system" : "url",
        "value" : "https://www.amadeusspital.at"
      }],
      "address" : [{
        "line" : ["Währinger Gürtel 18-20"],
        "city" : "Wien",
        "postalCode" : "1090",
        "country" : "AUT"
      }]
    }
  },
  {
    "fullUrl" : "urn:uuid:e3567418-073e-4fd7-af4e-5fd7ee4785f7",
    "resource" : {
      "resourceType" : "Specimen",
      "id" : "example-iv-5-diagnostic-specimen-1",
      "meta" : {
        "profile" : ["https://fhir.hl7.at/elga/aps/r4/StructureDefinition/at-aps-specimen"]
      },
      "text" : {
        "status" : "generated",
        "div" : "<div xmlns=\"http://www.w3.org/1999/xhtml\"><a name=\"Specimen_example-iv-5-diagnostic-specimen-1\"> </a><p class=\"res-header-id\"><b>Generated Narrative: Specimen example-iv-5-diagnostic-specimen-1</b></p><a name=\"example-iv-5-diagnostic-specimen-1\"> </a><a name=\"hcexample-iv-5-diagnostic-specimen-1\"> </a><a name=\"example-iv-5-diagnostic-specimen-1-en-US\"> </a><div style=\"display: inline-block; background-color: #d9e0e7; padding: 6px; margin: 4px; border: 1px solid #8da1b4; border-radius: 5px; line-height: 60%\"><p style=\"margin-bottom: 0px\"/><p style=\"margin-bottom: 0px\">Profile: <a href=\"https://build.fhir.org/ig/HL7Austria/ELGA-AustrianPatientSummary-R4/StructureDefinition-at-aps-specimen.html\">AT APS Specimen</a></p></div><p><b>status</b>: Unavailable</p><p><b>type</b>: <span title=\"Codes:{http://snomed.info/sct 119297000}\">Blutprobe</span></p><p><b>subject</b>: <a href=\"Bundle-example-iv-1.html#urn-uuid-0fed5ebe-ca8f-4ad1-aba4-ddad45bd6cc8\">Anton Testpatient</a></p></div>"
      },
      "status" : "unavailable",
      "type" : {
        "coding" : [{
          "system" : "http://snomed.info/sct",
          "code" : "119297000",
          "display" : "Blutprobe"
        }]
      },
      "subject" : {
        "reference" : "urn:uuid:0fed5ebe-ca8f-4ad1-aba4-ddad45bd6cc8",
        "display" : "Anton Testpatient"
      }
    }
  },
  {
    "fullUrl" : "urn:uuid:74c5e186-d765-4c93-a624-c9b0746e8142",
    "resource" : {
      "resourceType" : "Observation",
      "id" : "example-iv-5-vital-sign-1",
      "meta" : {
        "profile" : ["https://fhir.hl7.at/elga/aps/r4/StructureDefinition/at-aps-observationvitalsigns"]
      },
      "text" : {
        "status" : "generated",
        "div" : "<div xmlns=\"http://www.w3.org/1999/xhtml\"><a name=\"Observation_example-iv-5-vital-sign-1\"> </a><p class=\"res-header-id\"><b>Generated Narrative: Observation example-iv-5-vital-sign-1</b></p><a name=\"example-iv-5-vital-sign-1\"> </a><a name=\"hcexample-iv-5-vital-sign-1\"> </a><a name=\"example-iv-5-vital-sign-1-en-US\"> </a><div style=\"display: inline-block; background-color: #d9e0e7; padding: 6px; margin: 4px; border: 1px solid #8da1b4; border-radius: 5px; line-height: 60%\"><p style=\"margin-bottom: 0px\"/><p style=\"margin-bottom: 0px\">Profile: <a href=\"https://build.fhir.org/ig/HL7Austria/ELGA-AustrianPatientSummary-R4/StructureDefinition-at-aps-observationvitalsigns.html\">AT APS Observation Vital Signs</a></p></div><p><b>status</b>: Final</p><p><b>category</b>: <span title=\"Codes:{http://terminology.hl7.org/CodeSystem/observation-category vital-signs}\">Vital Signs</span></p><p><b>code</b>: <span title=\"Codes:{http://loinc.org 8302-2}\">Körpergröße</span></p><p><b>subject</b>: <a href=\"Bundle-example-iv-1.html#urn-uuid-0fed5ebe-ca8f-4ad1-aba4-ddad45bd6cc8\">Anton Testpatient</a></p><p><b>effective</b>: 2023-03-15 08:00:00+0000</p><p><b>performer</b>: <a href=\"Bundle-example-iv-1.html#urn-uuid-75db30ee-7028-486c-929a-c5126837f473\">Dr. Hanna Hausärztin</a></p><p><b>value</b>: 173 cm<span style=\"background: LightGoldenRodYellow\"> (Details: UCUM  codecm = 'cm')</span></p></div>"
      },
      "status" : "final",
      "category" : [{
        "coding" : [{
          "system" : "http://terminology.hl7.org/CodeSystem/observation-category",
          "code" : "vital-signs",
          "display" : "Vital Signs"
        }]
      }],
      "code" : {
        "coding" : [{
          "system" : "http://loinc.org",
          "code" : "8302-2",
          "display" : "Körpergröße"
        }]
      },
      "subject" : {
        "reference" : "urn:uuid:0fed5ebe-ca8f-4ad1-aba4-ddad45bd6cc8",
        "display" : "Anton Testpatient"
      },
      "effectiveDateTime" : "2023-03-15T08:00:00+00:00",
      "performer" : [{
        "reference" : "urn:uuid:75db30ee-7028-486c-929a-c5126837f473",
        "display" : "Dr. Hanna Hausärztin"
      }],
      "valueQuantity" : {
        "value" : 173,
        "unit" : "cm",
        "system" : "http://unitsofmeasure.org",
        "code" : "cm"
      }
    }
  },
  {
    "fullUrl" : "urn:uuid:428259da-e0f7-4780-b1e3-c177515edd37",
    "resource" : {
      "resourceType" : "Observation",
      "id" : "example-iv-5-vital-sign-2",
      "meta" : {
        "profile" : ["https://fhir.hl7.at/elga/aps/r4/StructureDefinition/at-aps-observationvitalsigns"]
      },
      "text" : {
        "status" : "generated",
        "div" : "<div xmlns=\"http://www.w3.org/1999/xhtml\"><a name=\"Observation_example-iv-5-vital-sign-2\"> </a><p class=\"res-header-id\"><b>Generated Narrative: Observation example-iv-5-vital-sign-2</b></p><a name=\"example-iv-5-vital-sign-2\"> </a><a name=\"hcexample-iv-5-vital-sign-2\"> </a><a name=\"example-iv-5-vital-sign-2-en-US\"> </a><div style=\"display: inline-block; background-color: #d9e0e7; padding: 6px; margin: 4px; border: 1px solid #8da1b4; border-radius: 5px; line-height: 60%\"><p style=\"margin-bottom: 0px\"/><p style=\"margin-bottom: 0px\">Profile: <a href=\"https://build.fhir.org/ig/HL7Austria/ELGA-AustrianPatientSummary-R4/StructureDefinition-at-aps-observationvitalsigns.html\">AT APS Observation Vital Signs</a></p></div><p><b>status</b>: Final</p><p><b>category</b>: <span title=\"Codes:{http://terminology.hl7.org/CodeSystem/observation-category vital-signs}\">Vital Signs</span></p><p><b>code</b>: <span title=\"Codes:{http://loinc.org 29463-7}\">Körpergewicht</span></p><p><b>subject</b>: <a href=\"Bundle-example-iv-1.html#urn-uuid-0fed5ebe-ca8f-4ad1-aba4-ddad45bd6cc8\">Anton Testpatient</a></p><p><b>effective</b>: 2023-03-15 08:00:00+0000</p><p><b>performer</b>: <a href=\"Bundle-example-iv-1.html#urn-uuid-75db30ee-7028-486c-929a-c5126837f473\">Dr. Hanna Hausärztin</a></p><p><b>value</b>: 90 kg<span style=\"background: LightGoldenRodYellow\"> (Details: UCUM  codekg = 'kg')</span></p></div>"
      },
      "status" : "final",
      "category" : [{
        "coding" : [{
          "system" : "http://terminology.hl7.org/CodeSystem/observation-category",
          "code" : "vital-signs",
          "display" : "Vital Signs"
        }]
      }],
      "code" : {
        "coding" : [{
          "system" : "http://loinc.org",
          "code" : "29463-7",
          "display" : "Körpergewicht"
        }]
      },
      "subject" : {
        "reference" : "urn:uuid:0fed5ebe-ca8f-4ad1-aba4-ddad45bd6cc8",
        "display" : "Anton Testpatient"
      },
      "effectiveDateTime" : "2023-03-15T08:00:00+00:00",
      "performer" : [{
        "reference" : "urn:uuid:75db30ee-7028-486c-929a-c5126837f473",
        "display" : "Dr. Hanna Hausärztin"
      }],
      "valueQuantity" : {
        "value" : 90,
        "unit" : "kg",
        "system" : "http://unitsofmeasure.org",
        "code" : "kg"
      }
    }
  },
  {
    "fullUrl" : "urn:uuid:daf9c15d-14d4-429c-b658-6842fdff67d8",
    "resource" : {
      "resourceType" : "Observation",
      "id" : "example-iv-5-vital-sign-3",
      "meta" : {
        "profile" : ["https://fhir.hl7.at/elga/aps/r4/StructureDefinition/at-aps-observationvitalsigns"]
      },
      "text" : {
        "status" : "generated",
        "div" : "<div xmlns=\"http://www.w3.org/1999/xhtml\"><a name=\"Observation_example-iv-5-vital-sign-3\"> </a><p class=\"res-header-id\"><b>Generated Narrative: Observation example-iv-5-vital-sign-3</b></p><a name=\"example-iv-5-vital-sign-3\"> </a><a name=\"hcexample-iv-5-vital-sign-3\"> </a><a name=\"example-iv-5-vital-sign-3-en-US\"> </a><div style=\"display: inline-block; background-color: #d9e0e7; padding: 6px; margin: 4px; border: 1px solid #8da1b4; border-radius: 5px; line-height: 60%\"><p style=\"margin-bottom: 0px\"/><p style=\"margin-bottom: 0px\">Profile: <a href=\"https://build.fhir.org/ig/HL7Austria/ELGA-AustrianPatientSummary-R4/StructureDefinition-at-aps-observationvitalsigns.html\">AT APS Observation Vital Signs</a></p></div><p><b>status</b>: Final</p><p><b>category</b>: <span title=\"Codes:{http://terminology.hl7.org/CodeSystem/observation-category vital-signs}\">Vital Signs</span></p><p><b>code</b>: <span title=\"Codes:{http://loinc.org 39156-5}\">Body Mass Index (BMI) [Verhältnis]</span></p><p><b>subject</b>: <a href=\"Bundle-example-iv-1.html#urn-uuid-0fed5ebe-ca8f-4ad1-aba4-ddad45bd6cc8\">Anton Testpatient</a></p><p><b>effective</b>: 2023-03-15 08:00:00+0000</p><p><b>performer</b>: <a href=\"Bundle-example-iv-1.html#urn-uuid-75db30ee-7028-486c-929a-c5126837f473\">Dr. Hanna Hausärztin</a></p><p><b>value</b>: 30.07 kg/m2<span style=\"background: LightGoldenRodYellow\"> (Details: UCUM  codekg/m2 = 'kg/m2')</span></p><p><b>interpretation</b>: <span title=\"Codes:{http://terminology.hl7.org/CodeSystem/v3-ObservationInterpretation H}\">High</span></p></div>"
      },
      "status" : "final",
      "category" : [{
        "coding" : [{
          "system" : "http://terminology.hl7.org/CodeSystem/observation-category",
          "code" : "vital-signs",
          "display" : "Vital Signs"
        }]
      }],
      "code" : {
        "coding" : [{
          "system" : "http://loinc.org",
          "code" : "39156-5",
          "display" : "Body Mass Index (BMI) [Verhältnis]"
        }]
      },
      "subject" : {
        "reference" : "urn:uuid:0fed5ebe-ca8f-4ad1-aba4-ddad45bd6cc8",
        "display" : "Anton Testpatient"
      },
      "effectiveDateTime" : "2023-03-15T08:00:00+00:00",
      "performer" : [{
        "reference" : "urn:uuid:75db30ee-7028-486c-929a-c5126837f473",
        "display" : "Dr. Hanna Hausärztin"
      }],
      "valueQuantity" : {
        "value" : 30.07,
        "unit" : "kg/m2",
        "system" : "http://unitsofmeasure.org",
        "code" : "kg/m2"
      },
      "interpretation" : [{
        "coding" : [{
          "system" : "http://terminology.hl7.org/CodeSystem/v3-ObservationInterpretation",
          "code" : "H",
          "display" : "High"
        }]
      }]
    }
  },
  {
    "fullUrl" : "urn:uuid:8248cc70-65a2-4d37-ae14-a3ef2abf8f32",
    "resource" : {
      "resourceType" : "Observation",
      "id" : "example-iv-5-vital-sign-4",
      "meta" : {
        "profile" : ["https://fhir.hl7.at/elga/aps/r4/StructureDefinition/at-aps-observationvitalsigns"]
      },
      "text" : {
        "status" : "generated",
        "div" : "<div xmlns=\"http://www.w3.org/1999/xhtml\"><a name=\"Observation_example-iv-5-vital-sign-4\"> </a><p class=\"res-header-id\"><b>Generated Narrative: Observation example-iv-5-vital-sign-4</b></p><a name=\"example-iv-5-vital-sign-4\"> </a><a name=\"hcexample-iv-5-vital-sign-4\"> </a><a name=\"example-iv-5-vital-sign-4-en-US\"> </a><div style=\"display: inline-block; background-color: #d9e0e7; padding: 6px; margin: 4px; border: 1px solid #8da1b4; border-radius: 5px; line-height: 60%\"><p style=\"margin-bottom: 0px\"/><p style=\"margin-bottom: 0px\">Profile: <a href=\"https://build.fhir.org/ig/HL7Austria/ELGA-AustrianPatientSummary-R4/StructureDefinition-at-aps-observationvitalsigns.html\">AT APS Observation Vital Signs</a></p></div><p><b>status</b>: Final</p><p><b>category</b>: <span title=\"Codes:{http://terminology.hl7.org/CodeSystem/observation-category vital-signs}\">Vital Signs</span></p><p><b>code</b>: <span title=\"Codes:{http://loinc.org 85354-9}\">Blood pressure panel with all children optional</span></p><p><b>subject</b>: <a href=\"Bundle-example-iv-1.html#urn-uuid-0fed5ebe-ca8f-4ad1-aba4-ddad45bd6cc8\">Anton Testpatient</a></p><p><b>effective</b>: 2023-03-15 08:00:00+0000</p><p><b>performer</b>: <a href=\"Bundle-example-iv-1.html#urn-uuid-75db30ee-7028-486c-929a-c5126837f473\">Dr. Hanna Hausärztin</a></p><blockquote><p><b>component</b></p><p><b>code</b>: <span title=\"Codes:{http://loinc.org 8480-6}\">Systolischer Blutdruck</span></p><p><b>value</b>: 180 mm[Hg]<span style=\"background: LightGoldenRodYellow\"> (Details: UCUM  codemm[Hg] = 'mm[Hg]')</span></p></blockquote><blockquote><p><b>component</b></p><p><b>code</b>: <span title=\"Codes:{http://loinc.org 8462-4}\">Diastolischer Blutdruck</span></p><p><b>value</b>: 80 mm[Hg]<span style=\"background: LightGoldenRodYellow\"> (Details: UCUM  codemm[Hg] = 'mm[Hg]')</span></p></blockquote></div>"
      },
      "status" : "final",
      "category" : [{
        "coding" : [{
          "system" : "http://terminology.hl7.org/CodeSystem/observation-category",
          "code" : "vital-signs",
          "display" : "Vital Signs"
        }]
      }],
      "code" : {
        "coding" : [{
          "system" : "http://loinc.org",
          "code" : "85354-9",
          "display" : "Blood pressure panel with all children optional"
        }]
      },
      "subject" : {
        "reference" : "urn:uuid:0fed5ebe-ca8f-4ad1-aba4-ddad45bd6cc8",
        "display" : "Anton Testpatient"
      },
      "effectiveDateTime" : "2023-03-15T08:00:00+00:00",
      "performer" : [{
        "reference" : "urn:uuid:75db30ee-7028-486c-929a-c5126837f473",
        "display" : "Dr. Hanna Hausärztin"
      }],
      "component" : [{
        "code" : {
          "coding" : [{
            "system" : "http://loinc.org",
            "code" : "8480-6",
            "display" : "Systolischer Blutdruck"
          }]
        },
        "valueQuantity" : {
          "value" : 180,
          "unit" : "mm[Hg]",
          "system" : "http://unitsofmeasure.org",
          "code" : "mm[Hg]"
        }
      },
      {
        "code" : {
          "coding" : [{
            "system" : "http://loinc.org",
            "code" : "8462-4",
            "display" : "Diastolischer Blutdruck"
          }]
        },
        "valueQuantity" : {
          "value" : 80,
          "unit" : "mm[Hg]",
          "system" : "http://unitsofmeasure.org",
          "code" : "mm[Hg]"
        }
      }]
    }
  },
  {
    "fullUrl" : "urn:uuid:4d3f7ac4-fd0a-49af-a56b-303a2dbe67d1",
    "resource" : {
      "resourceType" : "Observation",
      "id" : "example-iv-5-vital-sign-5",
      "meta" : {
        "profile" : ["https://fhir.hl7.at/elga/aps/r4/StructureDefinition/at-aps-observationvitalsigns"]
      },
      "text" : {
        "status" : "generated",
        "div" : "<div xmlns=\"http://www.w3.org/1999/xhtml\"><a name=\"Observation_example-iv-5-vital-sign-5\"> </a><p class=\"res-header-id\"><b>Generated Narrative: Observation example-iv-5-vital-sign-5</b></p><a name=\"example-iv-5-vital-sign-5\"> </a><a name=\"hcexample-iv-5-vital-sign-5\"> </a><a name=\"example-iv-5-vital-sign-5-en-US\"> </a><div style=\"display: inline-block; background-color: #d9e0e7; padding: 6px; margin: 4px; border: 1px solid #8da1b4; border-radius: 5px; line-height: 60%\"><p style=\"margin-bottom: 0px\"/><p style=\"margin-bottom: 0px\">Profile: <a href=\"https://build.fhir.org/ig/HL7Austria/ELGA-AustrianPatientSummary-R4/StructureDefinition-at-aps-observationvitalsigns.html\">AT APS Observation Vital Signs</a></p></div><p><b>status</b>: Final</p><p><b>category</b>: <span title=\"Codes:{http://terminology.hl7.org/CodeSystem/observation-category vital-signs}\">Vital Signs</span></p><p><b>code</b>: <span title=\"Codes:{http://loinc.org 8867-4}\">Herzfrequenz</span></p><p><b>subject</b>: <a href=\"Bundle-example-iv-1.html#urn-uuid-0fed5ebe-ca8f-4ad1-aba4-ddad45bd6cc8\">Anton Testpatient</a></p><p><b>effective</b>: 2023-03-15 08:00:00+0000</p><p><b>performer</b>: <a href=\"Bundle-example-iv-1.html#urn-uuid-75db30ee-7028-486c-929a-c5126837f473\">Dr. Hanna Hausärztin</a></p><p><b>value</b>: 100 /min<span style=\"background: LightGoldenRodYellow\"> (Details: UCUM  code/min = '/min')</span></p></div>"
      },
      "status" : "final",
      "category" : [{
        "coding" : [{
          "system" : "http://terminology.hl7.org/CodeSystem/observation-category",
          "code" : "vital-signs",
          "display" : "Vital Signs"
        }]
      }],
      "code" : {
        "coding" : [{
          "system" : "http://loinc.org",
          "code" : "8867-4",
          "display" : "Herzfrequenz"
        }]
      },
      "subject" : {
        "reference" : "urn:uuid:0fed5ebe-ca8f-4ad1-aba4-ddad45bd6cc8",
        "display" : "Anton Testpatient"
      },
      "effectiveDateTime" : "2023-03-15T08:00:00+00:00",
      "performer" : [{
        "reference" : "urn:uuid:75db30ee-7028-486c-929a-c5126837f473",
        "display" : "Dr. Hanna Hausärztin"
      }],
      "valueQuantity" : {
        "value" : 100,
        "unit" : "/min",
        "system" : "http://unitsofmeasure.org",
        "code" : "/min"
      }
    }
  },
  {
    "fullUrl" : "urn:uuid:82301518-66ca-4b4c-821d-087adf643cc4",
    "resource" : {
      "resourceType" : "Condition",
      "id" : "example-iv-5-illness-history-1",
      "meta" : {
        "profile" : ["https://fhir.hl7.at/elga/aps/r4/StructureDefinition/at-aps-condition"]
      },
      "text" : {
        "status" : "generated",
        "div" : "<div xmlns=\"http://www.w3.org/1999/xhtml\"><a name=\"Condition_example-iv-5-illness-history-1\"> </a><p class=\"res-header-id\"><b>Generated Narrative: Condition example-iv-5-illness-history-1</b></p><a name=\"example-iv-5-illness-history-1\"> </a><a name=\"hcexample-iv-5-illness-history-1\"> </a><a name=\"example-iv-5-illness-history-1-en-US\"> </a><div style=\"display: inline-block; background-color: #d9e0e7; padding: 6px; margin: 4px; border: 1px solid #8da1b4; border-radius: 5px; line-height: 60%\"><p style=\"margin-bottom: 0px\"/><p style=\"margin-bottom: 0px\">Profile: <a href=\"https://build.fhir.org/ig/HL7Austria/ELGA-AustrianPatientSummary-R4/StructureDefinition-at-aps-condition.html\">AT APS Condition</a></p></div><p><b>clinicalStatus</b>: <span title=\"Codes:{http://terminology.hl7.org/CodeSystem/condition-clinical resolved}\">Resolved</span></p><p><b>verificationStatus</b>: <span title=\"Codes:{http://terminology.hl7.org/CodeSystem/condition-ver-status confirmed}\">Confirmed</span></p><p><b>category</b>: <span title=\"Codes:{http://terminology.hl7.org/CodeSystem/condition-category problem-list-item}\">Problem List Item</span></p><p><b>code</b>: <span title=\"Codes:{http://snomed.info/sct 161419000}\">Zustand nach Masern</span></p><p><b>subject</b>: <a href=\"Bundle-example-iv-1.html#urn-uuid-0fed5ebe-ca8f-4ad1-aba4-ddad45bd6cc8\">Anton Testpatient</a></p></div>"
      },
      "clinicalStatus" : {
        "coding" : [{
          "system" : "http://terminology.hl7.org/CodeSystem/condition-clinical",
          "code" : "resolved",
          "display" : "Resolved"
        }]
      },
      "verificationStatus" : {
        "coding" : [{
          "system" : "http://terminology.hl7.org/CodeSystem/condition-ver-status",
          "code" : "confirmed",
          "display" : "Confirmed"
        }]
      },
      "category" : [{
        "coding" : [{
          "system" : "http://terminology.hl7.org/CodeSystem/condition-category",
          "code" : "problem-list-item",
          "display" : "Problem List Item"
        }]
      }],
      "code" : {
        "coding" : [{
          "system" : "http://snomed.info/sct",
          "code" : "161419000",
          "display" : "Zustand nach Masern"
        }]
      },
      "subject" : {
        "reference" : "urn:uuid:0fed5ebe-ca8f-4ad1-aba4-ddad45bd6cc8",
        "display" : "Anton Testpatient"
      }
    }
  },
  {
    "fullUrl" : "urn:uuid:39cd75da-2456-46a9-a703-89d8b65ae333",
    "resource" : {
      "resourceType" : "CarePlan",
      "id" : "example-iv-5-careplan-diabetes",
      "meta" : {
        "profile" : ["https://fhir.hl7.at/elga-iv-diabetes-r4/StructureDefinition/diab-careplan"]
      },
      "text" : {
        "status" : "active",
        "div" : "<div xmlns=\"http://www.w3.org/1999/xhtml\"><p>Behandlungsplan Diabetes</p></div>"
      },
      "identifier" : [{
        "value" : "12345"
      }],
      "instantiatesUri" : ["https://www.sozialministerium.at/2025/Behandlungsplan-bei-Diabetes-mellitus-Typ-II"],
      "status" : "active",
      "intent" : "plan",
      "category" : [{
        "coding" : [{
          "system" : "http://loinc.org",
          "code" : "18776-5",
          "display" : "Behandlungsplan"
        }],
        "text" : "Behandlungsplan Diabetes"
      }],
      "title" : "Behandlungsplan Diabetes",
      "description" : "Dokumentiert ausstehende Untersuchungen, Schulungen, klinische Ziele für die laufende Betreuung des Patienten.",
      "subject" : {
        "reference" : "urn:uuid:0fed5ebe-ca8f-4ad1-aba4-ddad45bd6cc8",
        "display" : "Anton Testpatient"
      },
      "created" : "2023-03-15T08:00:00+00:00",
      "author" : {
        "reference" : "urn:uuid:75db30ee-7028-486c-929a-c5126837f473",
        "display" : "Dr. Hanna Hausärztin"
      },
      "addresses" : [{
        "reference" : "urn:uuid:a3a9be59-ec61-4cab-92a9-9cbab6aec437",
        "display" : "Diabetes Mellitus Typ 2"
      }],
      "goal" : [{
        "reference" : "urn:uuid:39cd75da-4444-46a9-a703-89d8b65ae333",
        "display" : "Ziel Hba1c"
      },
      {
        "reference" : "urn:uuid:39cd75da-9999-46a9-a703-89d8b65ae333",
        "display" : "Ziel Bewegung"
      }],
      "activity" : [{
        "outcomeReference" : [{
          "reference" : "urn:uuid:39cd75da-1111-46a9-a703-89d8b65ae333",
          "display" : "Termin für Augenuntersuchung"
        }]
      },
      {
        "outcomeReference" : [{
          "reference" : "urn:uuid:39cd75da-2456-46a9-a703-89d8b65ae63b",
          "display" : "Termin für Ernährungsschulung"
        }]
      },
      {
        "outcomeReference" : [{
          "reference" : "urn:uuid:39cd75da-2456-46a9-a703-89d8b65ae631",
          "display" : "Angeforderte Laboruntersuchung"
        }]
      }]
    }
  },
  {
    "fullUrl" : "urn:uuid:39cd75da-1111-46a9-a703-89d8b65ae333",
    "resource" : {
      "resourceType" : "Appointment",
      "id" : "example-iv-5-careplan-diabetes-eye-exam",
      "text" : {
        "status" : "generated",
        "div" : "<div xmlns=\"http://www.w3.org/1999/xhtml\"><a name=\"Appointment_example-iv-5-careplan-diabetes-eye-exam\"> </a><p class=\"res-header-id\"><b>Generated Narrative: Appointment example-iv-5-careplan-diabetes-eye-exam</b></p><a name=\"example-iv-5-careplan-diabetes-eye-exam\"> </a><a name=\"hcexample-iv-5-careplan-diabetes-eye-exam\"> </a><a name=\"example-iv-5-careplan-diabetes-eye-exam-en-US\"> </a><p><b>status</b>: Proposed</p><p><b>serviceCategory</b>: <span title=\"Codes:\">Überweisung zum Facharzt</span></p><p><b>serviceType</b>: <span title=\"Codes:\">Diabetes</span></p><p><b>specialty</b>: <span title=\"Codes:\">Ophthalmology</span></p><p><b>appointmentType</b>: <span title=\"Codes:\">CHECKUP</span></p><p><b>reasonReference</b>: <a href=\"Bundle-example-iv-3.html#urn-uuid-a3a9be59-ec61-4cab-92a9-9cbab6aec437\">Diabetes Mellitus Typ 2</a></p><p><b>description</b>: Entsprechend Behandlungsplan Diabetes empfohlene Untersuchung der diabetischen Netzhaut</p><p><b>created</b>: 2023-03-17</p><h3>Participants</h3><table class=\"grid\"><tr><td style=\"display: none\">-</td><td><b>Actor</b></td><td><b>Status</b></td></tr><tr><td style=\"display: none\">*</td><td><a href=\"Bundle-example-iv-1.html#urn-uuid-0fed5ebe-ca8f-4ad1-aba4-ddad45bd6cc8\">Anton Testpatient</a></td><td>Accepted</td></tr></table><p><b>requestedPeriod</b>: 2023-03-17 --&gt; 2023-04-17</p></div>"
      },
      "status" : "proposed",
      "serviceCategory" : [{
        "coding" : [{
          "code" : "27",
          "display" : "Überweisung zum Facharzt"
        }]
      }],
      "serviceType" : [{
        "coding" : [{
          "code" : "318",
          "display" : "Diabetes"
        }]
      }],
      "specialty" : [{
        "coding" : [{
          "code" : "394594003",
          "display" : "Ophthalmology"
        }]
      }],
      "appointmentType" : {
        "coding" : [{
          "code" : "CHECKUP"
        }]
      },
      "reasonReference" : [{
        "reference" : "urn:uuid:a3a9be59-ec61-4cab-92a9-9cbab6aec437",
        "display" : "Diabetes Mellitus Typ 2"
      }],
      "description" : "Entsprechend Behandlungsplan Diabetes empfohlene Untersuchung der diabetischen Netzhaut",
      "created" : "2023-03-17",
      "participant" : [{
        "actor" : {
          "reference" : "urn:uuid:0fed5ebe-ca8f-4ad1-aba4-ddad45bd6cc8",
          "display" : "Anton Testpatient"
        },
        "status" : "accepted"
      }],
      "requestedPeriod" : [{
        "start" : "2023-03-17",
        "end" : "2023-04-17"
      }]
    }
  },
  {
    "fullUrl" : "urn:uuid:39cd75da-2456-46a9-a703-89d8b65ae63b",
    "resource" : {
      "resourceType" : "Appointment",
      "id" : "example-iv-5-careplan-diabetes-nutrition-training",
      "text" : {
        "status" : "generated",
        "div" : "<div xmlns=\"http://www.w3.org/1999/xhtml\"><a name=\"Appointment_example-iv-5-careplan-diabetes-nutrition-training\"> </a><p class=\"res-header-id\"><b>Generated Narrative: Appointment example-iv-5-careplan-diabetes-nutrition-training</b></p><a name=\"example-iv-5-careplan-diabetes-nutrition-training\"> </a><a name=\"hcexample-iv-5-careplan-diabetes-nutrition-training\"> </a><a name=\"example-iv-5-careplan-diabetes-nutrition-training-en-US\"> </a><p><b>status</b>: Booked</p><p><b>serviceCategory</b>: <span title=\"Codes:{http://snomed.info/sct 428274007}\">Ernährungsschulung bei Diabetes mellitus Typ II</span></p><p><b>serviceType</b>: <span title=\"Codes:\">Diabetes Schulung</span></p><p><b>appointmentType</b>: <span title=\"Codes:\">ROUTINE</span></p><p><b>reasonReference</b>: <a href=\"Bundle-example-iv-3.html#urn-uuid-a3a9be59-ec61-4cab-92a9-9cbab6aec437\">Diabetes Mellitus Typ 2</a></p><p><b>description</b>: Diese Schulung beinhaltet detaillierte Ernährungsinformationten für Diabetes mellitus Typ II Patienten</p><p><b>start</b>: 2023-03-20 08:00:00+0000</p><p><b>end</b>: 2023-03-20 10:00:00+0000</p><p><b>created</b>: 2023-03-17</p><blockquote><p><b>participant</b></p><p><b>actor</b>: <a href=\"Bundle-example-iv-1.html#urn-uuid-0fed5ebe-ca8f-4ad1-aba4-ddad45bd6cc8\">Anton Testpatient</a></p><p><b>status</b>: Accepted</p></blockquote><blockquote><p><b>participant</b></p><p><b>actor</b>: <a href=\"Bundle-example-iv-1.html#urn-uuid-75db30ee-7028-486c-929a-c5126837f473\">Dr. Hanna Hausärztin</a></p><p><b>status</b>: Accepted</p></blockquote></div>"
      },
      "status" : "booked",
      "serviceCategory" : [{
        "coding" : [{
          "system" : "http://snomed.info/sct",
          "code" : "428274007",
          "display" : "Ernährungsschulung bei Diabetes mellitus Typ II"
        }],
        "text" : "Ernährungsschulung bei Diabetes mellitus Typ II"
      }],
      "serviceType" : [{
        "coding" : [{
          "code" : "488",
          "display" : "Diabetes Schulung"
        }]
      }],
      "appointmentType" : {
        "coding" : [{
          "code" : "ROUTINE"
        }]
      },
      "reasonReference" : [{
        "reference" : "urn:uuid:a3a9be59-ec61-4cab-92a9-9cbab6aec437",
        "display" : "Diabetes Mellitus Typ 2"
      }],
      "description" : "Diese Schulung beinhaltet detaillierte Ernährungsinformationten für Diabetes mellitus Typ II Patienten",
      "start" : "2023-03-20T08:00:00+00:00",
      "end" : "2023-03-20T10:00:00+00:00",
      "created" : "2023-03-17",
      "participant" : [{
        "actor" : {
          "reference" : "urn:uuid:0fed5ebe-ca8f-4ad1-aba4-ddad45bd6cc8",
          "display" : "Anton Testpatient"
        },
        "status" : "accepted"
      },
      {
        "actor" : {
          "reference" : "urn:uuid:75db30ee-7028-486c-929a-c5126837f473",
          "display" : "Dr. Hanna Hausärztin"
        },
        "status" : "accepted"
      }]
    }
  },
  {
    "fullUrl" : "urn:uuid:39cd75da-2456-46a9-a703-89d8b65ae631",
    "resource" : {
      "resourceType" : "ServiceRequest",
      "id" : "example-iv-5-careplan-labor",
      "text" : {
        "status" : "additional",
        "div" : "<div xmlns=\"http://www.w3.org/1999/xhtml\"><p>Angeforderte Laboruntersuchung</p></div>"
      },
      "status" : "active",
      "intent" : "order",
      "category" : [{
        "coding" : [{
          "system" : "http://snomed.info/sct",
          "code" : "266753000",
          "display" : "Überweisung für Labortests"
        }]
      }],
      "priority" : "urgent",
      "code" : {
        "coding" : [{
          "system" : "http://loinc.org",
          "code" : "4548-4"
        }],
        "text" : "HbA1c"
      },
      "subject" : {
        "reference" : "urn:uuid:0fed5ebe-ca8f-4ad1-aba4-ddad45bd6cc8",
        "display" : "Anton Testpatient"
      },
      "authoredOn" : "2023-03-17T08:00:00+00:00",
      "requester" : {
        "reference" : "urn:uuid:75db30ee-7028-486c-929a-c5126837f473",
        "display" : "Dr. Hanna Hausärztin"
      },
      "reasonReference" : [{
        "reference" : "urn:uuid:a3a9be59-ec61-4cab-92a9-9cbab6aec437",
        "display" : "Diabetes Mellitus Typ 2"
      }]
    }
  },
  {
    "fullUrl" : "urn:uuid:39cd75da-4444-46a9-a703-89d8b65ae333",
    "resource" : {
      "resourceType" : "Goal",
      "id" : "example-iv-5-careplan-diabetes-hba1c-monitoring-target",
      "text" : {
        "status" : "generated",
        "div" : "<div xmlns=\"http://www.w3.org/1999/xhtml\"><a name=\"Goal_example-iv-5-careplan-diabetes-hba1c-monitoring-target\"> </a><p class=\"res-header-id\"><b>Generated Narrative: Goal example-iv-5-careplan-diabetes-hba1c-monitoring-target</b></p><a name=\"example-iv-5-careplan-diabetes-hba1c-monitoring-target\"> </a><a name=\"hcexample-iv-5-careplan-diabetes-hba1c-monitoring-target\"> </a><a name=\"example-iv-5-careplan-diabetes-hba1c-monitoring-target-en-US\"> </a><p><b>lifecycleStatus</b>: Active</p><p><b>achievementStatus</b>: <span title=\"Codes:{http://terminology.hl7.org/CodeSystem/goal-achievement in-progress}\">In Progress</span></p><p><b>priority</b>: <span title=\"Codes:{http://terminology.hl7.org/CodeSystem/goal-priority high-priority}\">hoch</span></p><p><b>description</b>: <span title=\"Codes:\">Hämoglobin A1c stabilisieren</span></p><p><b>subject</b>: <a href=\"Bundle-example-iv-1.html#urn-uuid-0fed5ebe-ca8f-4ad1-aba4-ddad45bd6cc8\">Anton Testpatient</a></p><p><b>start</b>: 2023-03-17</p><h3>Targets</h3><table class=\"grid\"><tr><td style=\"display: none\">-</td><td><b>Measure</b></td><td><b>Detail[x]</b></td></tr><tr><td style=\"display: none\">*</td><td><span title=\"Codes:{http://loinc.org 4548-4}\">Hämoglobin A1c total im Blut</span></td><td>&lt;7 %<span style=\"background: LightGoldenRodYellow\"> (Details:   code% = '%')</span></td></tr></table><p><b>expressedBy</b>: <a href=\"Bundle-example-iv-1.html#urn-uuid-75db30ee-7028-486c-929a-c5126837f473\">Dr. Hanna Hausärztin</a></p><p><b>addresses</b>: <a href=\"Bundle-example-iv-3.html#urn-uuid-a3a9be59-ec61-4cab-92a9-9cbab6aec437\">Diabetes Mellitus Typ 2</a></p><p><b>note</b>: Überwachen Sie regelmäßig den A1C-Wert, um das Gesamtziel von 6,0 zu erreichen.</p></div>"
      },
      "lifecycleStatus" : "active",
      "achievementStatus" : {
        "coding" : [{
          "system" : "http://terminology.hl7.org/CodeSystem/goal-achievement",
          "code" : "in-progress",
          "display" : "In Progress"
        }],
        "text" : "In Progress"
      },
      "priority" : {
        "coding" : [{
          "system" : "http://terminology.hl7.org/CodeSystem/goal-priority",
          "code" : "high-priority",
          "display" : "High Priority"
        }],
        "text" : "hoch"
      },
      "description" : {
        "text" : "Hämoglobin A1c stabilisieren"
      },
      "subject" : {
        "reference" : "urn:uuid:0fed5ebe-ca8f-4ad1-aba4-ddad45bd6cc8",
        "display" : "Anton Testpatient"
      },
      "startDate" : "2023-03-17",
      "target" : [{
        "measure" : {
          "coding" : [{
            "system" : "http://loinc.org",
            "code" : "4548-4",
            "display" : "Hämoglobin A1c total im Blut"
          }],
          "text" : "Hämoglobin A1c total im Blut"
        },
        "detailQuantity" : {
          "value" : 7,
          "comparator" : "<",
          "unit" : "%",
          "system" : "http://unitsofmeasure.org/",
          "code" : "%"
        }
      }],
      "expressedBy" : {
        "reference" : "urn:uuid:75db30ee-7028-486c-929a-c5126837f473",
        "display" : "Dr. Hanna Hausärztin"
      },
      "addresses" : [{
        "reference" : "urn:uuid:a3a9be59-ec61-4cab-92a9-9cbab6aec437",
        "display" : "Diabetes Mellitus Typ 2"
      }],
      "note" : [{
        "text" : "Überwachen Sie regelmäßig den A1C-Wert, um das Gesamtziel von 6,0 zu erreichen."
      }]
    }
  },
  {
    "fullUrl" : "urn:uuid:39cd75da-9999-46a9-a703-89d8b65ae333",
    "resource" : {
      "resourceType" : "Goal",
      "id" : "example-iv-5-careplan-diabetes-exercise",
      "text" : {
        "status" : "generated",
        "div" : "<div xmlns=\"http://www.w3.org/1999/xhtml\"><a name=\"Goal_example-iv-5-careplan-diabetes-exercise\"> </a><p class=\"res-header-id\"><b>Generated Narrative: Goal example-iv-5-careplan-diabetes-exercise</b></p><a name=\"example-iv-5-careplan-diabetes-exercise\"> </a><a name=\"hcexample-iv-5-careplan-diabetes-exercise\"> </a><a name=\"example-iv-5-careplan-diabetes-exercise-en-US\"> </a><p><b>lifecycleStatus</b>: Active</p><p><b>achievementStatus</b>: <span title=\"Codes:{http://terminology.hl7.org/CodeSystem/goal-achievement in-progress}\">In Progress</span></p><p><b>description</b>: <span title=\"Codes:\">Mindestens 30 Minuten pro Tag Sport treiben</span></p><p><b>subject</b>: <a href=\"Bundle-example-iv-1.html#urn-uuid-0fed5ebe-ca8f-4ad1-aba4-ddad45bd6cc8\">Anton Testpatient</a></p><p><b>start</b>: 2017-12-07</p><h3>Targets</h3><table class=\"grid\"><tr><td style=\"display: none\">-</td><td><b>Measure</b></td></tr><tr><td style=\"display: none\">*</td><td><span title=\"Codes:{http://snomed.info/sct 226029000}\">Bewegung</span></td></tr></table><p><b>expressedBy</b>: <a href=\"Bundle-example-iv-1.html#urn-uuid-75db30ee-7028-486c-929a-c5126837f473\">Dr. Hanna Hausärztin</a></p><p><b>addresses</b>: <a href=\"Bundle-example-iv-3.html#urn-uuid-a3a9be59-ec61-4cab-92a9-9cbab6aec437\">Diabetes Mellitus Typ 2</a></p></div>"
      },
      "lifecycleStatus" : "active",
      "achievementStatus" : {
        "coding" : [{
          "system" : "http://terminology.hl7.org/CodeSystem/goal-achievement",
          "code" : "in-progress",
          "display" : "In Progress"
        }],
        "text" : "In Progress"
      },
      "description" : {
        "text" : "Mindestens 30 Minuten pro Tag Sport treiben"
      },
      "subject" : {
        "reference" : "urn:uuid:0fed5ebe-ca8f-4ad1-aba4-ddad45bd6cc8",
        "display" : "Anton Testpatient"
      },
      "startDate" : "2017-12-07",
      "target" : [{
        "measure" : {
          "coding" : [{
            "system" : "http://snomed.info/sct",
            "code" : "226029000",
            "display" : "Exercises"
          }],
          "text" : "Bewegung"
        }
      }],
      "expressedBy" : {
        "reference" : "urn:uuid:75db30ee-7028-486c-929a-c5126837f473",
        "display" : "Dr. Hanna Hausärztin"
      },
      "addresses" : [{
        "reference" : "urn:uuid:a3a9be59-ec61-4cab-92a9-9cbab6aec437",
        "display" : "Diabetes Mellitus Typ 2"
      }]
    }
  },
  {
    "fullUrl" : "urn:uuid:d0a5bbf1-6d01-4d44-bac5-05f12c98411e",
    "resource" : {
      "resourceType" : "Observation",
      "id" : "example-iv-3-social-history-1",
      "meta" : {
        "profile" : ["https://fhir.hl7.at/elga/aps/r4/StructureDefinition/at-aps-observationtobaccouse"]
      },
      "text" : {
        "status" : "generated",
        "div" : "<div xmlns=\"http://www.w3.org/1999/xhtml\"><a name=\"Observation_example-iv-3-social-history-1\"> </a><p class=\"res-header-id\"><b>Generated Narrative: Observation example-iv-3-social-history-1</b></p><a name=\"example-iv-3-social-history-1\"> </a><a name=\"hcexample-iv-3-social-history-1\"> </a><a name=\"example-iv-3-social-history-1-en-US\"> </a><div style=\"display: inline-block; background-color: #d9e0e7; padding: 6px; margin: 4px; border: 1px solid #8da1b4; border-radius: 5px; line-height: 60%\"><p style=\"margin-bottom: 0px\"/><p style=\"margin-bottom: 0px\">Profile: <a href=\"https://build.fhir.org/ig/HL7Austria/ELGA-AustrianPatientSummary-R4/StructureDefinition-at-aps-observationtobaccouse.html\">AT APS Observation Tobacco Use</a></p></div><p><b>status</b>: Final</p><p><b>code</b>: <span title=\"Codes:{http://loinc.org 72166-2}\">Raucherstatus</span></p><p><b>subject</b>: <a href=\"Bundle-example-iv-1.html#urn-uuid-0fed5ebe-ca8f-4ad1-aba4-ddad45bd6cc8\">Anton Testpatient</a></p><p><b>effective</b>: 2023-03-15 08:00:00+0000</p><p><b>performer</b>: <a href=\"Bundle-example-iv-1.html#urn-uuid-75db30ee-7028-486c-929a-c5126837f473\">Dr. Hanna Hausärztin</a></p><p><b>value</b>: <span title=\"Codes:{http://snomed.info/sct 8517006}\">Ehemalig rauchende Person</span></p></div>"
      },
      "status" : "final",
      "code" : {
        "coding" : [{
          "system" : "http://loinc.org",
          "code" : "72166-2",
          "display" : "Raucherstatus"
        }]
      },
      "subject" : {
        "reference" : "urn:uuid:0fed5ebe-ca8f-4ad1-aba4-ddad45bd6cc8",
        "display" : "Anton Testpatient"
      },
      "effectiveDateTime" : "2023-03-15T08:00:00+00:00",
      "performer" : [{
        "reference" : "urn:uuid:75db30ee-7028-486c-929a-c5126837f473",
        "display" : "Dr. Hanna Hausärztin"
      }],
      "valueCodeableConcept" : {
        "coding" : [{
          "system" : "http://snomed.info/sct",
          "code" : "8517006",
          "display" : "Ehemalig rauchende Person"
        }]
      }
    }
  },
  {
    "fullUrl" : "urn:uuid:d0a5bbf1-6d01-4d44-bac5-05f12c984112",
    "resource" : {
      "resourceType" : "Observation",
      "id" : "example-iv-3-social-history-2",
      "meta" : {
        "profile" : ["https://fhir.hl7.at/elga/aps/r4/StructureDefinition/at-aps-observationalcoholuse"]
      },
      "text" : {
        "status" : "generated",
        "div" : "<div xmlns=\"http://www.w3.org/1999/xhtml\"><a name=\"Observation_example-iv-3-social-history-2\"> </a><p class=\"res-header-id\"><b>Generated Narrative: Observation example-iv-3-social-history-2</b></p><a name=\"example-iv-3-social-history-2\"> </a><a name=\"hcexample-iv-3-social-history-2\"> </a><a name=\"example-iv-3-social-history-2-en-US\"> </a><div style=\"display: inline-block; background-color: #d9e0e7; padding: 6px; margin: 4px; border: 1px solid #8da1b4; border-radius: 5px; line-height: 60%\"><p style=\"margin-bottom: 0px\"/><p style=\"margin-bottom: 0px\">Profile: <a href=\"https://build.fhir.org/ig/HL7Austria/ELGA-AustrianPatientSummary-R4/StructureDefinition-at-aps-observationalcoholuse.html\">AT APS Observation Alcohol Use</a></p></div><p><b>status</b>: Final</p><p><b>code</b>: <span title=\"Codes:{http://loinc.org 74013-4}\">Alkoholische Getränke pro Tag, 1-2 Gläser Wein/Bier</span></p><p><b>subject</b>: <a href=\"Bundle-example-iv-1.html#urn-uuid-0fed5ebe-ca8f-4ad1-aba4-ddad45bd6cc8\">Anton Testpatient</a></p><p><b>effective</b>: 2023-03-15 08:00:00+0000</p><p><b>performer</b>: <a href=\"Bundle-example-iv-1.html#urn-uuid-75db30ee-7028-486c-929a-c5126837f473\">Dr. Hanna Hausärztin</a></p><p><b>value</b>: 2 Gläser pro Tag<span style=\"background: LightGoldenRodYellow\"> (Details: UCUM  code/d = '/d')</span></p></div>"
      },
      "status" : "final",
      "code" : {
        "coding" : [{
          "system" : "http://loinc.org",
          "code" : "74013-4",
          "display" : "Alkoholische Getränke pro Tag, 1-2 Gläser Wein/Bier"
        }]
      },
      "subject" : {
        "reference" : "urn:uuid:0fed5ebe-ca8f-4ad1-aba4-ddad45bd6cc8",
        "display" : "Anton Testpatient"
      },
      "effectiveDateTime" : "2023-03-15T08:00:00+00:00",
      "performer" : [{
        "reference" : "urn:uuid:75db30ee-7028-486c-929a-c5126837f473",
        "display" : "Dr. Hanna Hausärztin"
      }],
      "valueQuantity" : {
        "value" : 2,
        "unit" : "Gläser pro Tag",
        "system" : "http://unitsofmeasure.org",
        "code" : "/d"
      }
    }
  },
  {
    "fullUrl" : "urn:uuid:9add5c32-1ded-43d6-b163-c3fe13f94984",
    "resource" : {
      "resourceType" : "Observation",
      "id" : "example-iv-3-social-history-3",
      "meta" : {
        "profile" : ["https://fhir.hl7.at/elga/aps/r4/StructureDefinition/at-aps-observation"]
      },
      "text" : {
        "status" : "generated",
        "div" : "<div xmlns=\"http://www.w3.org/1999/xhtml\"><a name=\"Observation_example-iv-3-social-history-3\"> </a><p class=\"res-header-id\"><b>Generated Narrative: Observation example-iv-3-social-history-3</b></p><a name=\"example-iv-3-social-history-3\"> </a><a name=\"hcexample-iv-3-social-history-3\"> </a><a name=\"example-iv-3-social-history-3-en-US\"> </a><div style=\"display: inline-block; background-color: #d9e0e7; padding: 6px; margin: 4px; border: 1px solid #8da1b4; border-radius: 5px; line-height: 60%\"><p style=\"margin-bottom: 0px\"/><p style=\"margin-bottom: 0px\">Profile: <a href=\"https://build.fhir.org/ig/HL7Austria/ELGA-AustrianPatientSummary-R4/StructureDefinition-at-aps-observation.html\">AT APS Observation</a></p></div><p><b>status</b>: Final</p><p><b>code</b>: <span title=\"Codes:{http://snomed.info/sct 61686008}\">Körperliche Aktivität</span></p><p><b>subject</b>: <a href=\"Bundle-example-iv-1.html#urn-uuid-0fed5ebe-ca8f-4ad1-aba4-ddad45bd6cc8\">Anton Testpatient</a></p><p><b>effective</b>: 2023-03-15 08:00:00+0000</p><p><b>performer</b>: <a href=\"Bundle-example-iv-1.html#urn-uuid-75db30ee-7028-486c-929a-c5126837f473\">Dr. Hanna Hausärztin</a></p><p><b>value</b>: &gt;2.5 h<span style=\"background: LightGoldenRodYellow\"> (Details: UCUM  codeh = 'h')</span>/1 wk<span style=\"background: LightGoldenRodYellow\"> (Details: UCUM  codewk = 'wk')</span></p></div>"
      },
      "status" : "final",
      "code" : {
        "coding" : [{
          "system" : "http://snomed.info/sct",
          "code" : "61686008",
          "display" : "Körperliche Aktivität"
        }]
      },
      "subject" : {
        "reference" : "urn:uuid:0fed5ebe-ca8f-4ad1-aba4-ddad45bd6cc8",
        "display" : "Anton Testpatient"
      },
      "effectiveDateTime" : "2023-03-15T08:00:00+00:00",
      "performer" : [{
        "reference" : "urn:uuid:75db30ee-7028-486c-929a-c5126837f473",
        "display" : "Dr. Hanna Hausärztin"
      }],
      "valueRatio" : {
        "numerator" : {
          "value" : 2.5,
          "comparator" : ">",
          "unit" : "h",
          "system" : "http://unitsofmeasure.org",
          "code" : "h"
        },
        "denominator" : {
          "value" : 1,
          "unit" : "wk",
          "system" : "http://unitsofmeasure.org",
          "code" : "wk"
        }
      }
    }
  }]
}