{
    "resourceType": "Bundle",
    "id": "63fef90a-be11-4ddf-aece-d77da15c4f20",
    "meta": {
        "profile": [
            "https://fhir.hl7.at/elga-austrianpatientsummary-r4/StructureDefinition/at-aps-bundle"
        ]
    },
    "identifier": {
        "system": "http://system-to-be-defined.com",
        "value": "63fef90a-be11-4ddf-aece-d77da15c4f20"
    },
    "type": "transaction",
    "entry": [
        {
            "fullUrl": "urn:uuid:212fdc76-ccc3-40bf-8cdd-82f2ef88bd7b",
            "resource": {
                "resourceType": "Composition",
                "id": "APS-1-no-problems-medication-allergies-composition",
                "meta": {
                    "profile": [
                        "https://fhir.hl7.at/elga-austrianpatientsummary-r4/StructureDefinition/at-aps-composition"
                    ]
                },
                "text": {
                    "status": "generated",
                    "div": "<div xmlns=\"http://www.w3.org/1999/xhtml\"><p>Generated Narrative</p></div>"
                },
                "extension": [
                    {
                        "url": "https://fhir.hl7.at/elga-austrianpatientsummary-r4/StructureDefinition/country-of-affiliation",
                        "valueString": "AT"
                    }
                ],
                "status": "preliminary",
                "type": {
                    "coding": [
                        {
                            "system": "http://loinc.org",
                            "code": "60591-5",
                            "display": "Patient summary"
                        }
                    ]
                },
                "subject": {
                    "reference": "urn:uuid:0fed5ebe-ca8f-4ad1-aba4-ddad45bd6cc8"
                },
                "date": "2024-02-08T14:01:30+00:00",
                "author": [
                    {
                        "reference": "urn:uuid:75db30ee-7028-486c-929a-c5126837f472"
                    }
                ],
                "title": "International Patient Summary",
                "attester": [
                    {
                        "mode": "personal",
                        "party": {
                            "reference": "urn:uuid:0fed5ebe-ca8f-4ad1-aba4-ddad45bd6cc8"
                        }
                    }
                ],
                "custodian": {
                    "reference": "urn:uuid:6bcdcc96-1443-48bd-ab41-7692dc1baecd"
                },
                "section": [
                    {
                        "title": "Medication Summary",
                        "code": {
                            "coding": [
                                {
                                    "system": "http://loinc.org",
                                    "code": "10160-0",
                                    "display": "History of Medication use Narrative"
                                }
                            ]
                        },
                        "text": {
                            "status": "generated",
                            "div": "<div xmlns=\"http://www.w3.org/1999/xhtml\"><p>Generated Narrative</p></div>"
                        },
                        "entry": [
                            {
                                "reference": "urn:uuid:acac4c94-a752-4cf5-9a6b-0d84237d5076"
                            }
                        ]
                    },
                    {
                        "title": "Allergies and Intolerances",
                        "code": {
                            "coding": [
                                {
                                    "system": "http://loinc.org",
                                    "code": "48765-2",
                                    "display": "Allergies and adverse reactions Document"
                                }
                            ]
                        },
                        "text": {
                            "status": "empty",
                            "div": "<div xmlns=\"http://www.w3.org/1999/xhtml\"><p>Generated Narrative</p></div>"
                        },
                        "entry": [
                            {
                                "reference": "urn:uuid:768eb9cb-00f3-4ab1-bfc2-ff835cb3b89b"
                            }
                        ]
                    },
                    {
                        "title": "Problem List",
                        "code": {
                            "coding": [
                                {
                                    "system": "http://loinc.org",
                                    "code": "11450-4",
                                    "display": "Problem list - Reported"
                                }
                            ]
                        },
                        "text": {
                            "status": "empty",
                            "div": "<div xmlns=\"http://www.w3.org/1999/xhtml\"><p>Generated Narrative</p></div>"
                        },
                        "entry": [
                            {
                                "reference": "urn:uuid:72e85b9d-004d-4104-b166-86d129948bae"
                            }
                        ]
                    },
                    {
                        "title": "History of Procedures",
                        "code": {
                            "coding": [
                                {
                                    "system": "http://loinc.org",
                                    "code": "47519-4"
                                }
                            ]
                        },
                        "text": {
                            "status": "empty",
                            "div": "<div xmlns=\"http://www.w3.org/1999/xhtml\"><p>Generated Narrative</p></div>"
                        },
                        "entry": [
                            {
                                "reference": "urn:uuid:27ef5ea9-5c9f-418d-9830-648d15ee2094"
                            }
                        ]
                    },
                    {
                        "title": "Medical Devices",
                        "code": {
                            "coding": [
                                {
                                    "system": "http://loinc.org",
                                    "code": "46264-8",
                                    "display": "History of medical device use"
                                }
                            ]
                        },
                        "text": {
                            "status": "empty",
                            "div": "<div xmlns=\"http://www.w3.org/1999/xhtml\"><p>Generated Narrative</p></div>"
                        },
                        "entry": [
                            {
                                "reference": "urn:uuid:490dab5c-271e-4736-8a6b-5f6f089d0a05"
                            }
                        ]
                    }
                ]
            },
            "request": {
                "method": "POST",
                "url": "Composition"
            }
        },
        {
            "fullUrl": "urn:uuid:0fed5ebe-ca8f-4ad1-aba4-ddad45bd6cc8",
            "resource": {
                "resourceType": "Patient",
                "id": "APS-1-no-problems-medication-allergies-patient",
                "meta": {
                    "profile": [
                        "https://fhir.hl7.at/elga-austrianpatientsummary-r4/StructureDefinition/at-aps-patient"
                    ]
                },
                "text": {
                    "status": "generated",
                    "div": "<div xmlns=\"http://www.w3.org/1999/xhtml\"><p>Generated Narrative</p></div>"
                },
                "identifier": [
                    {
                        "type": {
                            "coding": [
                                {
                                    "system": "http://terminology.hl7.org/CodeSystem/v2-0203",
                                    "code": "SS",
                                    "display": "Social Security number"
                                }
                            ]
                        },
                        "system": "urn:oid:1.2.40.0.10.1.4.3.1",
                        "value": "1111241261",
                        "assigner": {
                            "display": "Dachverband der österreichischen Sozialversicherungsträger"
                        }
                    },
                    {
                        "type": {
                            "coding": [
                                {
                                    "system": "http://terminology.hl7.org/CodeSystem/v2-0203",
                                    "code": "PI",
                                    "display": "Patient internal identifier"
                                }
                            ]
                        },
                        "system": "urn:oid:1.2.3.4.5",
                        "value": "0001",
                        "assigner": {
                            "display": "Ein GDA in Österreich"
                        }
                    }
                ],
                "name": [
                    {
                        "family": "Musterfrau",
                        "given": [
                            "Maria",
                            "Johanna"
                        ],
                        "prefix": [
                            "Dr."
                        ]
                    }
                ],
                "telecom": [
                    {
                        "system": "phone",
                        "value": "+43.2682.40400",
                        "use": "home"
                    },
                    {
                        "system": "phone",
                        "value": "+43.664.1234567",
                        "use": "mobile"
                    },
                    {
                        "system": "email",
                        "value": "musterfrau@provider.at"
                    }
                ],
                "gender": "female",
                "birthDate": "1961-12-24",
                "address": [
                    {
                        "use": "home",
                        "line": [
                            "Musterstraße 13a"
                        ],
                        "city": "Eisenstadt",
                        "state": "Burgenland",
                        "postalCode": "7000",
                        "country": "AUT"
                    }
                ],
                "maritalStatus": {
                    "coding": [
                        {
                            "system": "http://terminology.hl7.org/CodeSystem/v3-MaritalStatus",
                            "code": "M",
                            "display": "Married"
                        }
                    ]
                }
            },
            "request": {
                "method": "POST",
                "url": "Patient"
            }
        },
        {
            "fullUrl": "urn:uuid:75db30ee-7028-486c-929a-c5126837f472",
            "resource": {
                "resourceType": "Device",
                "id": "APS-1-no-problems-medication-allergies-author",
                "text": {
                    "status": "generated",
                    "div": "<div xmlns=\"http://www.w3.org/1999/xhtml\"><p>Generated Narrative</p></div>"
                },
                "deviceName": [
                    {
                        "name": "IPS Generator",
                        "type": "user-friendly-name"
                    }
                ]
            },
            "request": {
                "method": "POST",
                "url": "Device"
            }
        },
        {
            "fullUrl": "urn:uuid:72e85b9d-004d-4104-b166-86d129948bae",
            "resource": {
                "resourceType": "Condition",
                "id": "APS-1-no-problems-medication-allergies-problem-1",
                "meta": {
                    "profile": [
                        "https://fhir.hl7.at/elga-austrianpatientsummary-r4/StructureDefinition/at-aps-condition"
                    ]
                },
                "text": {
                    "status": "generated",
                    "div": "<div xmlns=\"http://www.w3.org/1999/xhtml\"><p>Generated Narrative</p></div>"
                },
                "clinicalStatus": {
                    "coding": [
                        {
                            "system": "http://terminology.hl7.org/CodeSystem/condition-clinical",
                            "code": "active",
                            "display": "Active"
                        }
                    ]
                },
                "code": {
                    "coding": [
                        {
                            "system": "http://snomed.info/sct",
                            "code": "160245001",
                            "display": "No current problems or disability"
                        }
                    ]
                },
                "subject": {
                    "reference": "urn:uuid:0fed5ebe-ca8f-4ad1-aba4-ddad45bd6cc8"
                }
            },
            "request": {
                "method": "POST",
                "url": "Condition"
            }
        },
        {
            "fullUrl": "urn:uuid:acac4c94-a752-4cf5-9a6b-0d84237d5076",
            "resource": {
                "resourceType": "MedicationStatement",
                "id": "APS-1-no-problems-medication-allergies-medication-summary-1",
                "meta": {
                    "profile": [
                        "https://fhir.hl7.at/elga-austrianpatientsummary-r4/StructureDefinition/at-aps-medicationstatement"
                    ]
                },
                "text": {
                    "status": "generated",
                    "div": "<div xmlns=\"http://www.w3.org/1999/xhtml\"><p>Generated Narrative</p></div>"
                },
                "status": "active",
                "medicationCodeableConcept": {
                    "coding": [
                        {
                            "system": "http://snomed.info/sct",
                            "code": "787481004",
                            "display": "No known medications (situation)"
                        }
                    ]
                },
                "subject": {
                    "reference": "urn:uuid:0fed5ebe-ca8f-4ad1-aba4-ddad45bd6cc8"
                },
                "effectiveDateTime": "2024-02-08T10:31:58+02:00"
            },
            "request": {
                "method": "POST",
                "url": "MedicationStatement"
            }
        },
        {
            "fullUrl": "urn:uuid:768eb9cb-00f3-4ab1-bfc2-ff835cb3b89b",
            "resource": {
                "resourceType": "AllergyIntolerance",
                "id": "APS-1-no-problems-medication-allergies-allergy-1",
                "meta": {
                    "profile": [
                        "https://fhir.hl7.at/elga-austrianpatientsummary-r4/StructureDefinition/at-aps-allergyintolerance"
                    ]
                },
                "text": {
                    "status": "generated",
                    "div": "<div xmlns=\"http://www.w3.org/1999/xhtml\"><p>Generated Narrative</p></div>"
                },
                "clinicalStatus": {
                    "coding": [
                        {
                            "system": "http://terminology.hl7.org/CodeSystem/allergyintolerance-clinical",
                            "code": "active",
                            "display": "Active"
                        }
                    ]
                },
                "code": {
                    "coding": [
                        {
                            "system": "http://snomed.info/sct",
                            "code": "716186003",
                            "display": "No known allergy (situation)"
                        }
                    ]
                },
                "patient": {
                    "reference": "urn:uuid:0fed5ebe-ca8f-4ad1-aba4-ddad45bd6cc8"
                }
            },
            "request": {
                "method": "POST",
                "url": "AllergyIntolerance"
            }
        },
        {
            "fullUrl": "urn:uuid:6bcdcc96-1443-48bd-ab41-7692dc1baecd",
            "resource": {
                "resourceType": "Organization",
                "id": "APS-1-organization",
                "meta": {
                    "profile": [
                        "https://fhir.hl7.at/elga-austrianpatientsummary-r4/StructureDefinition/at-aps-organization"
                    ]
                },
                "text": {
                    "status": "generated",
                    "div": "<div xmlns=\"http://www.w3.org/1999/xhtml\"><p>Generated Narrative</p></div>"
                },
                "name": "MusterOrganization"
            },
            "request": {
                "method": "POST",
                "url": "Organization"
            }
        },
        {
            "fullUrl": "urn:uuid:27ef5ea9-5c9f-418d-9830-648d15ee2094",
            "resource": {
                "resourceType": "Procedure",
                "id": "APS-1-no-problems-procedure-1",
                "meta": {
                    "profile": [
                        "https://fhir.hl7.at/elga-austrianpatientsummary-r4/StructureDefinition/at-aps-Procedure"
                    ]
                },
                "text": {
                    "status": "generated",
                    "div": "<div xmlns=\"http://www.w3.org/1999/xhtml\"><p>Generated Narrative</p></div>"
                },
                "status": "unknown",
                "code": {
                    "coding": [
                        {
                            "system": "http://snomed.info/sct",
                            "code": "787480003",
                            "display": "No known procedures (situation)"
                        }
                    ]
                },
                "subject": {
                    "reference": "urn:uuid:0fed5ebe-ca8f-4ad1-aba4-ddad45bd6cc8"
                },
                "_performedDateTime": {
                    "extension": [
                        {
                            "url": "http://hl7.org/fhir/StructureDefinition/data-absent-reason",
                            "valueCode": "unknown"
                        }
                    ]
                }
            },
            "request": {
                "method": "POST",
                "url": "Procedure"
            }
        },
        {
            "fullUrl": "urn:uuid:490dab5c-271e-4736-8a6b-5f6f089d0a05",
            "resource": {
                "resourceType": "DeviceUseStatement",
                "id": "APS-1-no-problems-device-use-1",
                "meta": {
                    "profile": [
                        "https://fhir.hl7.at/elga-austrianpatientsummary-r4/StructureDefinition/at-aps-deviceusestatement"
                    ]
                },
                "text": {
                    "status": "generated",
                    "div": "<div xmlns=\"http://www.w3.org/1999/xhtml\"><p>Generated Narrative</p></div>"
                },
                "status": "active",
                "subject": {
                    "reference": "urn:uuid:0fed5ebe-ca8f-4ad1-aba4-ddad45bd6cc8"
                },
                "_timingDateTime": {
                    "extension": [
                        {
                            "url": "http://hl7.org/fhir/StructureDefinition/data-absent-reason",
                            "valueCode": "unknown"
                        }
                    ]
                },
                "device": {
                    "reference": "urn:uuid:9faadcc1-076d-4bb4-b818-96239e2b8bc8"
                }
            },
            "request": {
                "method": "POST",
                "url": "DeviceUseStatement"
            }
        },
        {
            "fullUrl": "urn:uuid:9faadcc1-076d-4bb4-b818-96239e2b8bc8",
            "resource": {
                "resourceType": "Device",
                "id": "APS-1-no-problems-device-1",
                "meta": {
                    "profile": [
                        "https://fhir.hl7.at/elga-austrianpatientsummary-r4/StructureDefinition/at-aps-device"
                    ]
                },
                "text": {
                    "status": "generated",
                    "div": "<div xmlns=\"http://www.w3.org/1999/xhtml\"><p>Generated Narrative</p></div>"
                },
                "deviceName": [
                    {
                        "name": "empty",
                        "type": "other"
                    }
                ],
                "type": {
                    "coding": [
                        {
                            "system": "http://snomed.info/sct",
                            "code": "787483001",
                            "display": "No known device use (situation)"
                        }
                    ]
                },
                "version": [
                    {
                        "value": "empty"
                    }
                ],
                "patient": {
                    "reference": "urn:uuid:0fed5ebe-ca8f-4ad1-aba4-ddad45bd6cc8"
                }
            },
                "request": {
                    "method": "POST",
                    "url": "Device"
                }
        }
    ]
}