{
  "resourceType" : "Bundle",
  "id" : "example-diabetes-leitdokument-1",
  "meta" : {
    "profile" : ["https://fhir.hl7.at/elga-iv-diabetes-r4/StructureDefinition/diab-bundle"]
  },
  "identifier" : {
    "system" : "http://system-to-be-defined.com",
    "value" : "63fef90a-be11-4ddf-aece-d77da15c4f1"
  },
  "type" : "document",
  "timestamp" : "2025-01-08T14:01:30+00:00",
  "entry" : [{
    "fullUrl" : "urn:uuid:212fdc76-ccc3-40bf-8cdd-82f2ef88bd7b",
    "resource" : {
      "resourceType" : "Composition",
      "id" : "example-diab-leitdokument-1-composition",
      "meta" : {
        "profile" : ["https://fhir.hl7.at/elga-iv-diabetes-r4/StructureDefinition/diab-composition"]
      },
      "text" : {
        "status" : "extensions",
        "div" : "<div xmlns=\"http://www.w3.org/1999/xhtml\"><a name=\"Composition_example-diab-leitdokument-1-composition\"> </a><p class=\"res-header-id\"><b>Generated Narrative: Composition example-diab-leitdokument-1-composition</b></p><a name=\"example-diab-leitdokument-1-composition\"> </a><a name=\"hcexample-diab-leitdokument-1-composition\"> </a><a name=\"example-diab-leitdokument-1-composition-en-US\"> </a><div style=\"display: inline-block; background-color: #d9e0e7; padding: 6px; margin: 4px; border: 1px solid #8da1b4; border-radius: 5px; line-height: 60%\"><p style=\"margin-bottom: 0px\"/><p style=\"margin-bottom: 0px\">Profile: <a href=\"StructureDefinition-diab-composition.html\">Diabetes Composition</a></p></div><p><b>Country of Affiliation element</b>: AT</p><p><b>status</b>: Final</p><p><b>type</b>: <span title=\"Codes:{http://loinc.org 60591-5}\">Diabetes Leitdokument</span></p><p><b>date</b>: 2025-02-08 14:01:30+0000</p><p><b>author</b>: <a href=\"Bundle-ex-diab-journey-1.html#urn-uuid-75db30ee-7028-486c-929a-c5126837f472\">Dr. Gabriele IV-Ärztin</a></p><p><b>title</b>: Diabetes Leitdokument</p><h3>Attesters</h3><table class=\"grid\"><tr><td style=\"display: none\">-</td><td><b>Mode</b></td><td><b>Party</b></td></tr><tr><td style=\"display: none\">*</td><td>Personal</td><td><a href=\"Bundle-ex-diab-journey-1.html#urn-uuid-75db30ee-7028-486c-929a-c5126837f472\">Validiert von</a></td></tr></table><p><b>custodian</b>: <a href=\"Bundle-ex-diab-journey-1.html#urn-uuid-82f802a7-56a9-49b4-a675-95da08f0d7a6\">Amadeus Spital</a></p></div>"
      },
      "extension" : [{
        "url" : "https://fhir.hl7.at/elga/aps/r4/StructureDefinition/country-of-affiliation",
        "valueString" : "AT"
      }],
      "status" : "final",
      "type" : {
        "coding" : [{
          "system" : "http://loinc.org",
          "code" : "60591-5",
          "display" : "Diabetes Leitdokument"
        }]
      },
      "subject" : {
        "reference" : "urn:uuid:0fed5ebe-ca8f-4ad1-aba4-ddad45bd6cc8",
        "display" : "Susanne Testpatientin"
      },
      "date" : "2025-02-08T14:01:30+00:00",
      "author" : [{
        "reference" : "urn:uuid:75db30ee-7028-486c-929a-c5126837f472",
        "display" : "Dr. Gabriele IV-Ärztin"
      }],
      "title" : "Diabetes Leitdokument",
      "attester" : [{
        "mode" : "personal",
        "party" : {
          "reference" : "urn:uuid:75db30ee-7028-486c-929a-c5126837f472",
          "display" : "Validiert von"
        }
      }],
      "custodian" : {
        "reference" : "urn:uuid:82f802a7-56a9-49b4-a675-95da08f0d7a6",
        "display" : "Amadeus Spital"
      },
      "section" : [{
        "title" : "Diagnosen und Gesundheitsprobleme",
        "code" : {
          "coding" : [{
            "system" : "http://loinc.org",
            "code" : "11450-4",
            "display" : "Problem list - Reported"
          }]
        },
        "text" : {
          "status" : "generated",
          "div" : "<div xmlns=\"http://www.w3.org/1999/xhtml\"><b>Diagnose</b><ul><li>Diabetes mellitus aufgrund einer Verletzung der Bauchspeicheldrüse</li></ul><b>Weitere Diagnosen/Sekundärdiagnosen</b><ul><li>Diabetisches Fußsyndrom</li><li>Chronische Nierenerkrankung Stadium 3B</li><li>Langfristige Einnahme von Antikoagulantien</li><li>Bluthochdruck-Erkrankung</li></ul><b>Risiken</b><ul><li>Diabetes mellitus in der Familiem</li><li>Dickdarmkrebs in der Familie</li><li>Parodontalerkrankung</li></ul></div>"
        },
        "entry" : [{
          "reference" : "urn:uuid:72e85b9d-004d-4104-b166-86d129948bae",
          "display" : "Chronische Nierenerkrankung"
        },
        {
          "reference" : "urn:uuid:82fa32f6-39d6-4fc9-9624-90a48fd3d3a5"
        },
        {
          "reference" : "urn:uuid:9d1c0b74-20c1-4603-a95a-71e6a1dc8fde",
          "display" : "Arterielle Hypertonie"
        },
        {
          "reference" : "urn:uuid:caa77334-fbfc-4129-a101-1b01c595dd99",
          "display" : "Diabetes mellitus in der Familie"
        },
        {
          "reference" : "urn:uuid:caa77334-fbfc-4129-a101-1b01c595dd91",
          "display" : "Dickdarmkrebs in der Familie"
        },
        {
          "reference" : "urn:uuid:fa46fccb-5c24-4a40-a478-d6da4902ff33",
          "display" : "Parodontalerkrankung"
        }]
      },
      {
        "title" : "Medikationsliste",
        "code" : {
          "coding" : [{
            "system" : "http://loinc.org",
            "code" : "10160-0",
            "display" : "History of Medication use Narrative"
          }]
        },
        "text" : {
          "status" : "empty",
          "div" : "<div xmlns=\"http://www.w3.org/1999/xhtml\"><p>Medikationsliste</p></div>"
        },
        "entry" : [{
          "reference" : "urn:uuid:acac4c94-a752-4cf5-9a6b-0d84237d5076",
          "display" : "EBETREXAT TBL 10MG"
        }]
      },
      {
        "title" : "Allergien und Intoleranzen",
        "code" : {
          "coding" : [{
            "system" : "http://loinc.org",
            "code" : "48765-2",
            "display" : "Allergies and adverse reactions Document"
          }]
        },
        "text" : {
          "status" : "empty",
          "div" : "<div xmlns=\"http://www.w3.org/1999/xhtml\"><p>Allergien und Intoleranzen</p></div>"
        },
        "entry" : [{
          "reference" : "urn:uuid:768eb9cb-00f3-4ab1-bfc2-ff835cb3b89b",
          "display" : "Benzylpenicillin Natrium"
        }]
      },
      {
        "title" : "Eingriffe und Therapien",
        "code" : {
          "coding" : [{
            "system" : "http://loinc.org",
            "code" : "47519-4",
            "display" : "History of Procedures Document"
          }]
        },
        "text" : {
          "status" : "empty",
          "div" : "<div xmlns=\"http://www.w3.org/1999/xhtml\"><p>Eingriffe und Therapien</p></div>"
        },
        "entry" : [{
          "reference" : "urn:uuid:75c46c35-8f4e-4232-b026-5672c60d076a",
          "display" : "Totalersatz des linken Hüftgelenks"
        }]
      },
      {
        "title" : "Medizinische Geräte und Implantate",
        "code" : {
          "coding" : [{
            "system" : "http://loinc.org",
            "code" : "46264-8",
            "display" : "History of medical device use"
          }]
        },
        "text" : {
          "status" : "empty",
          "div" : "<div xmlns=\"http://www.w3.org/1999/xhtml\"><p>Medizinische Geräte und Implantate</p></div>"
        },
        "entry" : [{
          "reference" : "urn:uuid:490dab5c-271e-4736-8a6b-5f6f089d0a05"
        }]
      },
      {
        "title" : "Diagnostische Resultate",
        "code" : {
          "coding" : [{
            "system" : "http://loinc.org",
            "code" : "30954-2",
            "display" : "Relevant diagnostic tests/laboratory data Narrative"
          }]
        },
        "text" : {
          "status" : "empty",
          "div" : "<div xmlns=\"http://www.w3.org/1999/xhtml\"><p>Diagnostische Resultate</p></div>"
        },
        "entry" : [{
          "reference" : "urn:uuid:725bcf71-22e6-473b-a879-49a4b63cd654",
          "display" : "ABO- und Rh-Gruppe [Typ] im Blut"
        }]
      },
      {
        "title" : "Vitalparameter",
        "code" : {
          "coding" : [{
            "system" : "http://loinc.org",
            "code" : "8716-3",
            "display" : "Vital signs"
          }]
        },
        "text" : {
          "status" : "empty",
          "div" : "<div xmlns=\"http://www.w3.org/1999/xhtml\"><p>Vitalparameter</p></div>"
        },
        "entry" : [{
          "reference" : "urn:uuid:74c5e186-d765-4c93-a624-c9b0746e8142",
          "display" : "Körpergröße"
        }]
      },
      {
        "title" : "Vergangene Gesundheitsprobleme und Risiken / Diagnosen",
        "code" : {
          "coding" : [{
            "system" : "http://loinc.org",
            "code" : "11348-0",
            "display" : "History of Past illness Narrative"
          }]
        },
        "text" : {
          "status" : "empty",
          "div" : "<div xmlns=\"http://www.w3.org/1999/xhtml\"><p>Vergangene Gesundheitsprobleme und Risiken / Diagnosen</p></div>"
        },
        "entry" : [{
          "reference" : "urn:uuid:82301518-66ca-4b4c-821d-087adf643cc9",
          "display" : "Zustand nach Windpocken"
        }]
      },
      {
        "title" : "Lebensstil",
        "code" : {
          "coding" : [{
            "system" : "http://loinc.org",
            "code" : "29762-2",
            "display" : "Social history Narrative"
          }]
        },
        "text" : {
          "status" : "empty",
          "div" : "<div xmlns=\"http://www.w3.org/1999/xhtml\"><p>Lebensstil</p></div>"
        },
        "entry" : [{
          "reference" : "urn:uuid:d0a5bbf1-6d01-4d44-bac5-05f12c98411e",
          "display" : "Ehemalig rauchende Person"
        },
        {
          "reference" : "urn:uuid:d0a5bbf1-6d01-4d44-bac5-05f12c984119",
          "display" : "Körperliche Bewegung"
        }]
      },
      {
        "title" : "Behandlungsplan",
        "code" : {
          "coding" : [{
            "system" : "http://loinc.org",
            "code" : "18776-5",
            "display" : "Plan of care note"
          }]
        },
        "text" : {
          "status" : "empty",
          "div" : "<div xmlns=\"http://www.w3.org/1999/xhtml\"><p>Behandlungsplan</p></div>"
        },
        "entry" : [{
          "reference" : "urn:uuid:39cd75da-2456-46a9-a703-89d8b65ae63b"
        }]
      }]
    }
  },
  {
    "fullUrl" : "urn:uuid:0fed5ebe-ca8f-4ad1-aba4-ddad45bd6cc8",
    "resource" : {
      "resourceType" : "Patient",
      "id" : "Susanne-Testpatientin",
      "meta" : {
        "profile" : ["https://fhir.hl7.at/elga/aps/r4/StructureDefinition/at-aps-patient"]
      },
      "text" : {
        "status" : "generated",
        "div" : "<div xmlns=\"http://www.w3.org/1999/xhtml\"><a name=\"Patient_Susanne-Testpatientin\"> </a><p class=\"res-header-id\"><b>Generated Narrative: Patient Susanne-Testpatientin</b></p><a name=\"Susanne-Testpatientin\"> </a><a name=\"hcSusanne-Testpatientin\"> </a><a name=\"Susanne-Testpatientin-en-US\"> </a><div style=\"display: inline-block; background-color: #d9e0e7; padding: 6px; margin: 4px; border: 1px solid #8da1b4; border-radius: 5px; line-height: 60%\"><p style=\"margin-bottom: 0px\"/><p style=\"margin-bottom: 0px\">Profile: <a href=\"file://C:\\Users\\aklostermann\\FHIR_local\\ELGA-AustrianPatientSummary-R4\\output/StructureDefinition-at-aps-patient.html\">AT APS Patient</a></p></div><p style=\"border: 1px #661aff solid; background-color: #e6e6ff; padding: 10px;\">Susanne Testpatientin  Female, DoB: 1951-11-12 ( Social Security Number: 0000121150)</p><hr/><table class=\"grid\"><tr><td style=\"background-color: #f3f5da\" title=\"Other Id (see the one above)\">Other Id:</td><td colspan=\"3\">Patient internal identifier/0002</td></tr><tr><td style=\"background-color: #f3f5da\" title=\"Ways to contact the Patient\">Contact Detail</td><td colspan=\"3\">Am Schulweg 5 Hainfeld 3100 AUT (home)</td></tr></table></div>"
      },
      "identifier" : [{
        "type" : {
          "coding" : [{
            "system" : "http://terminology.hl7.org/CodeSystem/v2-0203",
            "code" : "SS",
            "display" : "Social Security Number"
          }]
        },
        "system" : "urn:oid:1.2.40.0.10.1.4.3.1",
        "value" : "0000121150",
        "assigner" : {
          "display" : "Dachverband der österreichischen Sozialversicherungsträger"
        }
      },
      {
        "type" : {
          "coding" : [{
            "system" : "http://terminology.hl7.org/CodeSystem/v2-0203",
            "code" : "PI",
            "display" : "Patient internal identifier"
          }]
        },
        "system" : "urn:oid:1.2.3.4.5",
        "value" : "0002",
        "assigner" : {
          "display" : "Ein GDA in Österreich"
        }
      }],
      "name" : [{
        "family" : "Testpatientin",
        "given" : ["Susanne"]
      }],
      "gender" : "female",
      "birthDate" : "1951-11-12",
      "address" : [{
        "use" : "home",
        "line" : ["Am Schulweg 5"],
        "city" : "Hainfeld",
        "postalCode" : "3100",
        "country" : "AUT"
      }]
    }
  },
  {
    "fullUrl" : "urn:uuid:75db30ee-7028-486c-929a-c5126837f472",
    "resource" : {
      "resourceType" : "Practitioner",
      "id" : "Gabriele-IV-Arzt",
      "meta" : {
        "profile" : ["https://fhir.hl7.at/elga/aps/r4/StructureDefinition/at-aps-practitioner"]
      },
      "text" : {
        "status" : "generated",
        "div" : "<div xmlns=\"http://www.w3.org/1999/xhtml\"><a name=\"Practitioner_Gabriele-IV-Arzt\"> </a><p class=\"res-header-id\"><b>Generated Narrative: Practitioner Gabriele-IV-Arzt</b></p><a name=\"Gabriele-IV-Arzt\"> </a><a name=\"hcGabriele-IV-Arzt\"> </a><a name=\"Gabriele-IV-Arzt-en-US\"> </a><div style=\"display: inline-block; background-color: #d9e0e7; padding: 6px; margin: 4px; border: 1px solid #8da1b4; border-radius: 5px; line-height: 60%\"><p style=\"margin-bottom: 0px\"/><p style=\"margin-bottom: 0px\">Profile: <a href=\"file://C:\\Users\\aklostermann\\FHIR_local\\ELGA-AustrianPatientSummary-R4\\output/StructureDefinition-at-aps-practitioner.html\">AT APS Practitioner</a></p></div><p><b>identifier</b>: <a href=\"http://terminology.hl7.org/6.0.2/NamingSystem-uri.html\" title=\"As defined by RFC 3986 (http://www.ietf.org/rfc/rfc3986.txt)(with many schemes defined in many RFCs). For OIDs and UUIDs, use the URN form (urn:oid:(note: lowercase) and urn:uuid:). See http://www.ietf.org/rfc/rfc3001.txt and http://www.ietf.org/rfc/rfc4122.txt \r\n\r\nThis oid is used as an identifier II.root to indicate the the extension is an absolute URI (technically, an IRI). Typically, this is used for OIDs and GUIDs. Note that when this OID is used with OIDs and GUIDs, the II.extension should start with urn:oid or urn:uuid: \r\n\r\nNote that this OID is created to aid with interconversion between CDA and FHIR - FHIR uses urn:ietf:rfc:3986 as equivalent to this OID. URIs as identifiers appear more commonly in FHIR.\r\n\r\nThis OID may also be used in CD.codeSystem.\">Uniform Resource Identifier (URI)</a>/urn:oid:1.2.40.0.10.99.1.2.3.4</p><p><b>name</b>: Gabriele IV-Ärztin </p></div>"
      },
      "identifier" : [{
        "system" : "urn:ietf:rfc:3986",
        "value" : "urn:oid:1.2.40.0.10.99.1.2.3.4",
        "assigner" : {
          "display" : "Bundesministerium für Gesundheit"
        }
      }],
      "name" : [{
        "family" : "IV-Ärztin",
        "given" : ["Gabriele"],
        "prefix" : ["Dr."]
      }]
    }
  },
  {
    "fullUrl" : "urn:uuid:82f802a7-56a9-49b4-a675-95da08f0d7a6",
    "resource" : {
      "resourceType" : "Organization",
      "id" : "performer-Amadeus-Spital",
      "meta" : {
        "profile" : ["https://fhir.hl7.at/elga/aps/r4/StructureDefinition/at-aps-organization"]
      },
      "text" : {
        "status" : "generated",
        "div" : "<div xmlns=\"http://www.w3.org/1999/xhtml\"><a name=\"Organization_performer-Amadeus-Spital\"> </a><p class=\"res-header-id\"><b>Generated Narrative: Organization performer-Amadeus-Spital</b></p><a name=\"performer-Amadeus-Spital\"> </a><a name=\"hcperformer-Amadeus-Spital\"> </a><a name=\"performer-Amadeus-Spital-en-US\"> </a><div style=\"display: inline-block; background-color: #d9e0e7; padding: 6px; margin: 4px; border: 1px solid #8da1b4; border-radius: 5px; line-height: 60%\"><p style=\"margin-bottom: 0px\"/><p style=\"margin-bottom: 0px\">Profile: <a href=\"file://C:\\Users\\aklostermann\\FHIR_local\\ELGA-AustrianPatientSummary-R4\\output/StructureDefinition-at-aps-organization.html\">AT APS Organization</a></p></div><p><b>identifier</b>: <a href=\"http://terminology.hl7.org/6.0.2/NamingSystem-uri.html\" title=\"As defined by RFC 3986 (http://www.ietf.org/rfc/rfc3986.txt)(with many schemes defined in many RFCs). For OIDs and UUIDs, use the URN form (urn:oid:(note: lowercase) and urn:uuid:). See http://www.ietf.org/rfc/rfc3001.txt and http://www.ietf.org/rfc/rfc4122.txt \r\n\r\nThis oid is used as an identifier II.root to indicate the the extension is an absolute URI (technically, an IRI). Typically, this is used for OIDs and GUIDs. Note that when this OID is used with OIDs and GUIDs, the II.extension should start with urn:oid or urn:uuid: \r\n\r\nNote that this OID is created to aid with interconversion between CDA and FHIR - FHIR uses urn:ietf:rfc:3986 as equivalent to this OID. URIs as identifiers appear more commonly in FHIR.\r\n\r\nThis OID may also be used in CD.codeSystem.\">Uniform Resource Identifier (URI)</a>/urn:oid:82f802a7-56a9-49b4-a675-95da08f0d7a6</p><p><b>name</b>: Amadeus Spital - Labor</p><p><b>telecom</b>: <a href=\"tel:+43.1.3453446.0\">+43.1.3453446.0</a>, fax: +43.1.3453446.4674, <a href=\"mailto:info@amadeusspital.at\">info@amadeusspital.at</a>, <a href=\"https://www.amadeusspital.at\">https://www.amadeusspital.at</a></p><p><b>address</b>: Währinger Gürtel 18-20 Wien 1090 AUT </p></div>"
      },
      "identifier" : [{
        "system" : "urn:ietf:rfc:3986",
        "value" : "urn:oid:82f802a7-56a9-49b4-a675-95da08f0d7a6",
        "assigner" : {
          "display" : "Bundesministerium für Gesundheit"
        }
      }],
      "name" : "Amadeus Spital - Labor",
      "telecom" : [{
        "system" : "phone",
        "value" : "+43.1.3453446.0"
      },
      {
        "system" : "fax",
        "value" : "+43.1.3453446.4674"
      },
      {
        "system" : "email",
        "value" : "info@amadeusspital.at"
      },
      {
        "system" : "url",
        "value" : "https://www.amadeusspital.at"
      }],
      "address" : [{
        "line" : ["Währinger Gürtel 18-20"],
        "city" : "Wien",
        "postalCode" : "1090",
        "country" : "AUT"
      }]
    }
  },
  {
    "fullUrl" : "urn:uuid:72e85b9d-004d-4104-b166-86d129948bae",
    "resource" : {
      "resourceType" : "Condition",
      "id" : "problem-Chronische-Nierenerkrankung",
      "meta" : {
        "profile" : ["https://fhir.hl7.at/elga/aps/r4/StructureDefinition/at-aps-condition"]
      },
      "text" : {
        "status" : "generated",
        "div" : "<div xmlns=\"http://www.w3.org/1999/xhtml\"><a name=\"Condition_problem-Chronische-Nierenerkrankung\"> </a><p class=\"res-header-id\"><b>Generated Narrative: Condition problem-Chronische-Nierenerkrankung</b></p><a name=\"problem-Chronische-Nierenerkrankung\"> </a><a name=\"hcproblem-Chronische-Nierenerkrankung\"> </a><a name=\"problem-Chronische-Nierenerkrankung-en-US\"> </a><div style=\"display: inline-block; background-color: #d9e0e7; padding: 6px; margin: 4px; border: 1px solid #8da1b4; border-radius: 5px; line-height: 60%\"><p style=\"margin-bottom: 0px\"/><p style=\"margin-bottom: 0px\">Profile: <a href=\"file://C:\\Users\\aklostermann\\FHIR_local\\ELGA-AustrianPatientSummary-R4\\output/StructureDefinition-at-aps-condition.html\">AT APS Condition</a></p></div><p><b>clinicalStatus</b>: <span title=\"Codes:{http://terminology.hl7.org/CodeSystem/condition-clinical active}\">Active</span></p><p><b>verificationStatus</b>: <span title=\"Codes:{http://terminology.hl7.org/CodeSystem/condition-ver-status confirmed}\">Confirmed</span></p><p><b>category</b>: <span title=\"Codes:{http://terminology.hl7.org/CodeSystem/condition-category problem-list-item}\">Problem List Item</span></p><p><b>code</b>: <span title=\"Codes:{http://snomed.info/sct 700379002}\">Chronische Nierenerkrankung Stadium 3B</span></p><p><b>subject</b>: <a href=\"Bundle-ex-diab-journey-1.html#urn-uuid-0fed5ebe-ca8f-4ad1-aba4-ddad45bd6cc8\">Susanne Testpatientin</a></p></div>"
      },
      "clinicalStatus" : {
        "coding" : [{
          "system" : "http://terminology.hl7.org/CodeSystem/condition-clinical",
          "code" : "active",
          "display" : "Active"
        }]
      },
      "verificationStatus" : {
        "coding" : [{
          "system" : "http://terminology.hl7.org/CodeSystem/condition-ver-status",
          "code" : "confirmed",
          "display" : "Confirmed"
        }]
      },
      "category" : [{
        "coding" : [{
          "system" : "http://terminology.hl7.org/CodeSystem/condition-category",
          "code" : "problem-list-item",
          "display" : "Problem List Item"
        }]
      }],
      "code" : {
        "coding" : [{
          "system" : "http://snomed.info/sct",
          "code" : "700379002",
          "display" : "Chronische Nierenerkrankung Stadium 3B"
        }]
      },
      "subject" : {
        "reference" : "urn:uuid:0fed5ebe-ca8f-4ad1-aba4-ddad45bd6cc8",
        "display" : "Susanne Testpatientin"
      }
    }
  },
  {
    "fullUrl" : "urn:uuid:82fa32f6-39d6-4fc9-9624-90a48fd3d3a5",
    "resource" : {
      "resourceType" : "Condition",
      "id" : "problem-Einnahme-Antikoagulantien",
      "meta" : {
        "profile" : ["https://fhir.hl7.at/elga/aps/r4/StructureDefinition/at-aps-condition"]
      },
      "text" : {
        "status" : "generated",
        "div" : "<div xmlns=\"http://www.w3.org/1999/xhtml\"><a name=\"Condition_problem-Einnahme-Antikoagulantien\"> </a><p class=\"res-header-id\"><b>Generated Narrative: Condition problem-Einnahme-Antikoagulantien</b></p><a name=\"problem-Einnahme-Antikoagulantien\"> </a><a name=\"hcproblem-Einnahme-Antikoagulantien\"> </a><a name=\"problem-Einnahme-Antikoagulantien-en-US\"> </a><div style=\"display: inline-block; background-color: #d9e0e7; padding: 6px; margin: 4px; border: 1px solid #8da1b4; border-radius: 5px; line-height: 60%\"><p style=\"margin-bottom: 0px\"/><p style=\"margin-bottom: 0px\">Profile: <a href=\"file://C:\\Users\\aklostermann\\FHIR_local\\ELGA-AustrianPatientSummary-R4\\output/StructureDefinition-at-aps-condition.html\">AT APS Condition</a></p></div><p><b>clinicalStatus</b>: <span title=\"Codes:{http://terminology.hl7.org/CodeSystem/condition-clinical active}\">Active</span></p><p><b>verificationStatus</b>: <span title=\"Codes:{http://terminology.hl7.org/CodeSystem/condition-ver-status confirmed}\">Confirmed</span></p><p><b>category</b>: <span title=\"Codes:{http://terminology.hl7.org/CodeSystem/condition-category problem-list-item}\">Problem List Item</span></p><p><b>code</b>: <span title=\"Codes:{http://snomed.info/sct 711150003}\">Langfristige Einnahme von Antikoagulantien</span></p><p><b>subject</b>: <a href=\"Bundle-ex-diab-journey-1.html#urn-uuid-0fed5ebe-ca8f-4ad1-aba4-ddad45bd6cc8\">Susanne Testpatientin</a></p></div>"
      },
      "clinicalStatus" : {
        "coding" : [{
          "system" : "http://terminology.hl7.org/CodeSystem/condition-clinical",
          "code" : "active",
          "display" : "Active"
        }]
      },
      "verificationStatus" : {
        "coding" : [{
          "system" : "http://terminology.hl7.org/CodeSystem/condition-ver-status",
          "code" : "confirmed",
          "display" : "Confirmed"
        }]
      },
      "category" : [{
        "coding" : [{
          "system" : "http://terminology.hl7.org/CodeSystem/condition-category",
          "code" : "problem-list-item",
          "display" : "Problem List Item"
        }]
      }],
      "code" : {
        "coding" : [{
          "system" : "http://snomed.info/sct",
          "code" : "711150003",
          "display" : "Langfristige Einnahme von Antikoagulantien"
        }]
      },
      "subject" : {
        "reference" : "urn:uuid:0fed5ebe-ca8f-4ad1-aba4-ddad45bd6cc8",
        "display" : "Susanne Testpatientin"
      }
    }
  },
  {
    "fullUrl" : "urn:uuid:61db6213-22ab-405a-825a-0ae6905fad1e",
    "resource" : {
      "resourceType" : "Condition",
      "id" : "problem-Diabetes-Verletzung-Bauchspeicheldruese",
      "meta" : {
        "profile" : ["https://fhir.hl7.at/elga/aps/r4/StructureDefinition/at-aps-condition"]
      },
      "text" : {
        "status" : "generated",
        "div" : "<div xmlns=\"http://www.w3.org/1999/xhtml\"><a name=\"Condition_problem-Diabetes-Verletzung-Bauchspeicheldruese\"> </a><p class=\"res-header-id\"><b>Generated Narrative: Condition problem-Diabetes-Verletzung-Bauchspeicheldruese</b></p><a name=\"problem-Diabetes-Verletzung-Bauchspeicheldruese\"> </a><a name=\"hcproblem-Diabetes-Verletzung-Bauchspeicheldruese\"> </a><a name=\"problem-Diabetes-Verletzung-Bauchspeicheldruese-en-US\"> </a><div style=\"display: inline-block; background-color: #d9e0e7; padding: 6px; margin: 4px; border: 1px solid #8da1b4; border-radius: 5px; line-height: 60%\"><p style=\"margin-bottom: 0px\"/><p style=\"margin-bottom: 0px\">Profile: <a href=\"file://C:\\Users\\aklostermann\\FHIR_local\\ELGA-AustrianPatientSummary-R4\\output/StructureDefinition-at-aps-condition.html\">AT APS Condition</a></p></div><p><b>clinicalStatus</b>: <span title=\"Codes:{http://terminology.hl7.org/CodeSystem/condition-clinical active}\">Active</span></p><p><b>verificationStatus</b>: <span title=\"Codes:{http://terminology.hl7.org/CodeSystem/condition-ver-status confirmed}\">Confirmed</span></p><p><b>category</b>: <span title=\"Codes:{http://terminology.hl7.org/CodeSystem/condition-category problem-list-item}\">Problem List Item</span></p><p><b>code</b>: <span title=\"Codes:{http://snomed.info/sct 105401000119101}\">Diabetes mellitus aufgrund einer Verletzung der Bauchspeicheldrüse</span></p><p><b>subject</b>: <a href=\"Bundle-ex-diab-journey-1.html#urn-uuid-0fed5ebe-ca8f-4ad1-aba4-ddad45bd6cc8\">Susanne Testpatientin</a></p><p><b>recordedDate</b>: 2024-02-08 14:01:30+0000</p></div>"
      },
      "clinicalStatus" : {
        "coding" : [{
          "system" : "http://terminology.hl7.org/CodeSystem/condition-clinical",
          "code" : "active",
          "display" : "Active"
        }]
      },
      "verificationStatus" : {
        "coding" : [{
          "system" : "http://terminology.hl7.org/CodeSystem/condition-ver-status",
          "code" : "confirmed",
          "display" : "Confirmed"
        }]
      },
      "category" : [{
        "coding" : [{
          "system" : "http://terminology.hl7.org/CodeSystem/condition-category",
          "code" : "problem-list-item",
          "display" : "Problem List Item"
        }]
      }],
      "code" : {
        "coding" : [{
          "system" : "http://snomed.info/sct",
          "code" : "105401000119101",
          "display" : "Diabetes mellitus aufgrund einer Verletzung der Bauchspeicheldrüse"
        }]
      },
      "subject" : {
        "reference" : "urn:uuid:0fed5ebe-ca8f-4ad1-aba4-ddad45bd6cc8",
        "display" : "Susanne Testpatientin"
      },
      "recordedDate" : "2024-02-08T14:01:30+00:00"
    }
  },
  {
    "fullUrl" : "urn:uuid:61db6213-22ab-405a-825a-0ae6905fad2e",
    "resource" : {
      "resourceType" : "Condition",
      "id" : "problem-Diabetisches-Fusssyndrom",
      "meta" : {
        "profile" : ["https://fhir.hl7.at/elga/aps/r4/StructureDefinition/at-aps-condition"]
      },
      "text" : {
        "status" : "generated",
        "div" : "<div xmlns=\"http://www.w3.org/1999/xhtml\"><a name=\"Condition_problem-Diabetisches-Fusssyndrom\"> </a><p class=\"res-header-id\"><b>Generated Narrative: Condition problem-Diabetisches-Fusssyndrom</b></p><a name=\"problem-Diabetisches-Fusssyndrom\"> </a><a name=\"hcproblem-Diabetisches-Fusssyndrom\"> </a><a name=\"problem-Diabetisches-Fusssyndrom-en-US\"> </a><div style=\"display: inline-block; background-color: #d9e0e7; padding: 6px; margin: 4px; border: 1px solid #8da1b4; border-radius: 5px; line-height: 60%\"><p style=\"margin-bottom: 0px\"/><p style=\"margin-bottom: 0px\">Profile: <a href=\"file://C:\\Users\\aklostermann\\FHIR_local\\ELGA-AustrianPatientSummary-R4\\output/StructureDefinition-at-aps-condition.html\">AT APS Condition</a></p></div><p><b>clinicalStatus</b>: <span title=\"Codes:{http://terminology.hl7.org/CodeSystem/condition-clinical active}\">Active</span></p><p><b>verificationStatus</b>: <span title=\"Codes:{http://terminology.hl7.org/CodeSystem/condition-ver-status confirmed}\">Confirmed</span></p><p><b>category</b>: <span title=\"Codes:{http://terminology.hl7.org/CodeSystem/condition-category problem-list-item}\">Problem List Item</span></p><p><b>code</b>: <span title=\"Codes:{http://snomed.info/sct 280137006}\">Diabetisches Fußsyndrom</span></p><p><b>subject</b>: <a href=\"Bundle-ex-diab-journey-1.html#urn-uuid-0fed5ebe-ca8f-4ad1-aba4-ddad45bd6cc8\">Susanne Testpatientin</a></p><p><b>recordedDate</b>: 2021-02-08 14:01:30+0000</p></div>"
      },
      "clinicalStatus" : {
        "coding" : [{
          "system" : "http://terminology.hl7.org/CodeSystem/condition-clinical",
          "code" : "active",
          "display" : "Active"
        }]
      },
      "verificationStatus" : {
        "coding" : [{
          "system" : "http://terminology.hl7.org/CodeSystem/condition-ver-status",
          "code" : "confirmed",
          "display" : "Confirmed"
        }]
      },
      "category" : [{
        "coding" : [{
          "system" : "http://terminology.hl7.org/CodeSystem/condition-category",
          "code" : "problem-list-item",
          "display" : "Problem List Item"
        }]
      }],
      "code" : {
        "coding" : [{
          "system" : "http://snomed.info/sct",
          "code" : "280137006",
          "display" : "Diabetisches Fußsyndrom"
        }]
      },
      "subject" : {
        "reference" : "urn:uuid:0fed5ebe-ca8f-4ad1-aba4-ddad45bd6cc8",
        "display" : "Susanne Testpatientin"
      },
      "recordedDate" : "2021-02-08T14:01:30+00:00"
    }
  },
  {
    "fullUrl" : "urn:uuid:9d1c0b74-20c1-4603-a95a-71e6a1dc8fde",
    "resource" : {
      "resourceType" : "Condition",
      "id" : "problem-Bluthochdruck1",
      "meta" : {
        "profile" : ["https://fhir.hl7.at/elga/aps/r4/StructureDefinition/at-aps-condition"]
      },
      "text" : {
        "status" : "generated",
        "div" : "<div xmlns=\"http://www.w3.org/1999/xhtml\"><a name=\"Condition_problem-Bluthochdruck1\"> </a><p class=\"res-header-id\"><b>Generated Narrative: Condition problem-Bluthochdruck1</b></p><a name=\"problem-Bluthochdruck1\"> </a><a name=\"hcproblem-Bluthochdruck1\"> </a><a name=\"problem-Bluthochdruck1-en-US\"> </a><div style=\"display: inline-block; background-color: #d9e0e7; padding: 6px; margin: 4px; border: 1px solid #8da1b4; border-radius: 5px; line-height: 60%\"><p style=\"margin-bottom: 0px\"/><p style=\"margin-bottom: 0px\">Profile: <a href=\"file://C:\\Users\\aklostermann\\FHIR_local\\ELGA-AustrianPatientSummary-R4\\output/StructureDefinition-at-aps-condition.html\">AT APS Condition</a></p></div><p><b>clinicalStatus</b>: <span title=\"Codes:{http://terminology.hl7.org/CodeSystem/condition-clinical active}\">Active</span></p><p><b>verificationStatus</b>: <span title=\"Codes:{http://terminology.hl7.org/CodeSystem/condition-ver-status confirmed}\">Confirmed</span></p><p><b>category</b>: <span title=\"Codes:{http://terminology.hl7.org/CodeSystem/condition-category problem-list-item}\">Problem List Item</span></p><p><b>code</b>: <span title=\"Codes:{http://snomed.info/sct 38341003}\">Arterielle Hypertonie</span></p><p><b>subject</b>: <a href=\"Bundle-ex-diab-journey-1.html#urn-uuid-0fed5ebe-ca8f-4ad1-aba4-ddad45bd6cc8\">Susanne Testpatientin</a></p></div>"
      },
      "clinicalStatus" : {
        "coding" : [{
          "system" : "http://terminology.hl7.org/CodeSystem/condition-clinical",
          "code" : "active",
          "display" : "Active"
        }]
      },
      "verificationStatus" : {
        "coding" : [{
          "system" : "http://terminology.hl7.org/CodeSystem/condition-ver-status",
          "code" : "confirmed",
          "display" : "Confirmed"
        }]
      },
      "category" : [{
        "coding" : [{
          "system" : "http://terminology.hl7.org/CodeSystem/condition-category",
          "code" : "problem-list-item",
          "display" : "Problem List Item"
        }]
      }],
      "code" : {
        "coding" : [{
          "system" : "http://snomed.info/sct",
          "code" : "38341003",
          "display" : "Arterielle Hypertonie"
        }]
      },
      "subject" : {
        "reference" : "urn:uuid:0fed5ebe-ca8f-4ad1-aba4-ddad45bd6cc8",
        "display" : "Susanne Testpatientin"
      }
    }
  },
  {
    "fullUrl" : "urn:uuid:caa77334-fbfc-4129-a101-1b01c595dd99",
    "resource" : {
      "resourceType" : "Condition",
      "id" : "problem-Diabetes-Familie",
      "meta" : {
        "profile" : ["https://fhir.hl7.at/elga/aps/r4/StructureDefinition/at-aps-condition"]
      },
      "text" : {
        "status" : "generated",
        "div" : "<div xmlns=\"http://www.w3.org/1999/xhtml\"><a name=\"Condition_problem-Diabetes-Familie\"> </a><p class=\"res-header-id\"><b>Generated Narrative: Condition problem-Diabetes-Familie</b></p><a name=\"problem-Diabetes-Familie\"> </a><a name=\"hcproblem-Diabetes-Familie\"> </a><a name=\"problem-Diabetes-Familie-en-US\"> </a><div style=\"display: inline-block; background-color: #d9e0e7; padding: 6px; margin: 4px; border: 1px solid #8da1b4; border-radius: 5px; line-height: 60%\"><p style=\"margin-bottom: 0px\"/><p style=\"margin-bottom: 0px\">Profile: <a href=\"file://C:\\Users\\aklostermann\\FHIR_local\\ELGA-AustrianPatientSummary-R4\\output/StructureDefinition-at-aps-condition.html\">AT APS Condition</a></p></div><p><b>clinicalStatus</b>: <span title=\"Codes:{http://terminology.hl7.org/CodeSystem/condition-clinical active}\">Active</span></p><p><b>verificationStatus</b>: <span title=\"Codes:{http://terminology.hl7.org/CodeSystem/condition-ver-status confirmed}\">Confirmed</span></p><p><b>category</b>: <span title=\"Codes:{http://terminology.hl7.org/CodeSystem/condition-category problem-list-item}\">Problem List Item</span></p><p><b>code</b>: <span title=\"Codes:{http://snomed.info/sct 160303001}\">Diabetes mellitus in der Familie</span></p><p><b>subject</b>: <a href=\"Bundle-ex-diab-journey-1.html#urn-uuid-0fed5ebe-ca8f-4ad1-aba4-ddad45bd6cc8\">Susanne Testpatientin</a></p></div>"
      },
      "clinicalStatus" : {
        "coding" : [{
          "system" : "http://terminology.hl7.org/CodeSystem/condition-clinical",
          "code" : "active",
          "display" : "Active"
        }]
      },
      "verificationStatus" : {
        "coding" : [{
          "system" : "http://terminology.hl7.org/CodeSystem/condition-ver-status",
          "code" : "confirmed",
          "display" : "Confirmed"
        }]
      },
      "category" : [{
        "coding" : [{
          "system" : "http://terminology.hl7.org/CodeSystem/condition-category",
          "code" : "problem-list-item",
          "display" : "Problem List Item"
        }]
      }],
      "code" : {
        "coding" : [{
          "system" : "http://snomed.info/sct",
          "code" : "160303001",
          "display" : "Diabetes mellitus in der Familie"
        }]
      },
      "subject" : {
        "reference" : "urn:uuid:0fed5ebe-ca8f-4ad1-aba4-ddad45bd6cc8",
        "display" : "Susanne Testpatientin"
      }
    }
  },
  {
    "fullUrl" : "urn:uuid:caa77334-fbfc-4129-a101-1b01c595dd91",
    "resource" : {
      "resourceType" : "Condition",
      "id" : "problem-Dickdarmkrebs-Familie",
      "meta" : {
        "profile" : ["https://fhir.hl7.at/elga/aps/r4/StructureDefinition/at-aps-condition"]
      },
      "text" : {
        "status" : "generated",
        "div" : "<div xmlns=\"http://www.w3.org/1999/xhtml\"><a name=\"Condition_problem-Dickdarmkrebs-Familie\"> </a><p class=\"res-header-id\"><b>Generated Narrative: Condition problem-Dickdarmkrebs-Familie</b></p><a name=\"problem-Dickdarmkrebs-Familie\"> </a><a name=\"hcproblem-Dickdarmkrebs-Familie\"> </a><a name=\"problem-Dickdarmkrebs-Familie-en-US\"> </a><div style=\"display: inline-block; background-color: #d9e0e7; padding: 6px; margin: 4px; border: 1px solid #8da1b4; border-radius: 5px; line-height: 60%\"><p style=\"margin-bottom: 0px\"/><p style=\"margin-bottom: 0px\">Profile: <a href=\"file://C:\\Users\\aklostermann\\FHIR_local\\ELGA-AustrianPatientSummary-R4\\output/StructureDefinition-at-aps-condition.html\">AT APS Condition</a></p></div><p><b>clinicalStatus</b>: <span title=\"Codes:{http://terminology.hl7.org/CodeSystem/condition-clinical active}\">Active</span></p><p><b>verificationStatus</b>: <span title=\"Codes:{http://terminology.hl7.org/CodeSystem/condition-ver-status confirmed}\">Confirmed</span></p><p><b>category</b>: <span title=\"Codes:{http://terminology.hl7.org/CodeSystem/condition-category problem-list-item}\">Problem List Item</span></p><p><b>code</b>: <span title=\"Codes:{http://snomed.info/sct 312824007}\">Dickdarmkrebs in der Familie</span></p><p><b>subject</b>: <a href=\"Bundle-ex-diab-journey-1.html#urn-uuid-0fed5ebe-ca8f-4ad1-aba4-ddad45bd6cc8\">Susanne Testpatientin</a></p></div>"
      },
      "clinicalStatus" : {
        "coding" : [{
          "system" : "http://terminology.hl7.org/CodeSystem/condition-clinical",
          "code" : "active",
          "display" : "Active"
        }]
      },
      "verificationStatus" : {
        "coding" : [{
          "system" : "http://terminology.hl7.org/CodeSystem/condition-ver-status",
          "code" : "confirmed",
          "display" : "Confirmed"
        }]
      },
      "category" : [{
        "coding" : [{
          "system" : "http://terminology.hl7.org/CodeSystem/condition-category",
          "code" : "problem-list-item",
          "display" : "Problem List Item"
        }]
      }],
      "code" : {
        "coding" : [{
          "system" : "http://snomed.info/sct",
          "code" : "312824007",
          "display" : "Dickdarmkrebs in der Familie"
        }]
      },
      "subject" : {
        "reference" : "urn:uuid:0fed5ebe-ca8f-4ad1-aba4-ddad45bd6cc8",
        "display" : "Susanne Testpatientin"
      }
    }
  },
  {
    "fullUrl" : "urn:uuid:fa46fccb-5c24-4a40-a478-d6da4902ff33",
    "resource" : {
      "resourceType" : "Condition",
      "id" : "problem-Parodontalerkrankung",
      "meta" : {
        "profile" : ["https://fhir.hl7.at/elga/aps/r4/StructureDefinition/at-aps-condition"]
      },
      "text" : {
        "status" : "generated",
        "div" : "<div xmlns=\"http://www.w3.org/1999/xhtml\"><a name=\"Condition_problem-Parodontalerkrankung\"> </a><p class=\"res-header-id\"><b>Generated Narrative: Condition problem-Parodontalerkrankung</b></p><a name=\"problem-Parodontalerkrankung\"> </a><a name=\"hcproblem-Parodontalerkrankung\"> </a><a name=\"problem-Parodontalerkrankung-en-US\"> </a><div style=\"display: inline-block; background-color: #d9e0e7; padding: 6px; margin: 4px; border: 1px solid #8da1b4; border-radius: 5px; line-height: 60%\"><p style=\"margin-bottom: 0px\"/><p style=\"margin-bottom: 0px\">Profile: <a href=\"file://C:\\Users\\aklostermann\\FHIR_local\\ELGA-AustrianPatientSummary-R4\\output/StructureDefinition-at-aps-condition.html\">AT APS Condition</a></p></div><p><b>clinicalStatus</b>: <span title=\"Codes:{http://terminology.hl7.org/CodeSystem/condition-clinical inactive}\">Inactive</span></p><p><b>verificationStatus</b>: <span title=\"Codes:{http://terminology.hl7.org/CodeSystem/condition-ver-status provisional}\">Provisional</span></p><p><b>category</b>: <span title=\"Codes:{http://terminology.hl7.org/CodeSystem/condition-category problem-list-item}\">Problem List Item</span></p><p><b>code</b>: <span title=\"Codes:{http://snomed.info/sct 2556008}\">Parodontalerkrankung</span></p><p><b>subject</b>: <a href=\"Bundle-ex-diab-journey-1.html#urn-uuid-0fed5ebe-ca8f-4ad1-aba4-ddad45bd6cc8\">Susanne Testpatientin</a></p><h3>Stages</h3><table class=\"grid\"><tr><td style=\"display: none\">-</td><td><b>Assessment</b></td></tr><tr><td style=\"display: none\">*</td><td><a href=\"Bundle-example-diabetes-leitdokument-1-opt.html#urn-uuid-f235c566-01aa-457d-ab49-9e422df69863\">Bewertung der Risikofaktoren für Parodontalerkrankungen</a></td></tr></table></div>"
      },
      "clinicalStatus" : {
        "coding" : [{
          "system" : "http://terminology.hl7.org/CodeSystem/condition-clinical",
          "code" : "inactive",
          "display" : "Inactive"
        }]
      },
      "verificationStatus" : {
        "coding" : [{
          "system" : "http://terminology.hl7.org/CodeSystem/condition-ver-status",
          "code" : "provisional",
          "display" : "Provisional"
        }]
      },
      "category" : [{
        "coding" : [{
          "system" : "http://terminology.hl7.org/CodeSystem/condition-category",
          "code" : "problem-list-item",
          "display" : "Problem List Item"
        }]
      }],
      "code" : {
        "coding" : [{
          "system" : "http://snomed.info/sct",
          "code" : "2556008",
          "display" : "Parodontalerkrankung"
        }]
      },
      "subject" : {
        "reference" : "urn:uuid:0fed5ebe-ca8f-4ad1-aba4-ddad45bd6cc8",
        "display" : "Susanne Testpatientin"
      },
      "stage" : [{
        "assessment" : [{
          "reference" : "urn:uuid:f235c566-01aa-457d-ab49-9e422df69863",
          "display" : "Bewertung der Risikofaktoren für Parodontalerkrankungen"
        }]
      }]
    }
  },
  {
    "fullUrl" : "urn:uuid:f235c566-01aa-457d-ab49-9e422df69863",
    "resource" : {
      "resourceType" : "Observation",
      "id" : "condition-Parodontalerkrankung-Bewertung",
      "text" : {
        "status" : "generated",
        "div" : "<div xmlns=\"http://www.w3.org/1999/xhtml\"><a name=\"Observation_condition-Parodontalerkrankung-Bewertung\"> </a><p class=\"res-header-id\"><b>Generated Narrative: Observation condition-Parodontalerkrankung-Bewertung</b></p><a name=\"condition-Parodontalerkrankung-Bewertung\"> </a><a name=\"hccondition-Parodontalerkrankung-Bewertung\"> </a><a name=\"condition-Parodontalerkrankung-Bewertung-en-US\"> </a><p><b>status</b>: Final</p><p><b>category</b>: <span title=\"Codes:{http://terminology.hl7.org/CodeSystem/observation-category exam}\">Exam</span></p><p><b>code</b>: <span title=\"Codes:{http://snomed.info/sct 1237049003}\">Bewertung der Risikofaktoren für Parodontalerkrankungen</span></p><p><b>subject</b>: <a href=\"Bundle-ex-diab-journey-1.html#urn-uuid-0fed5ebe-ca8f-4ad1-aba4-ddad45bd6cc8\">Susanne Testpatientin</a></p><p><b>effective</b>: 2024-02-08 08:30:00+0100</p><p><b>performer</b>: <a href=\"Bundle-ex-diab-journey-1.html#urn-uuid-82f802a7-56a9-49b4-a675-95da08f0d7a6\">Amadeus Spital</a></p><p><b>value</b>: <span title=\"Codes:{http://snomed.info/sct 723509005}\">High risk</span></p></div>"
      },
      "status" : "final",
      "category" : [{
        "coding" : [{
          "system" : "http://terminology.hl7.org/CodeSystem/observation-category",
          "code" : "exam",
          "display" : "Exam"
        }]
      }],
      "code" : {
        "coding" : [{
          "system" : "http://snomed.info/sct",
          "code" : "1237049003",
          "display" : "Bewertung der Risikofaktoren für Parodontalerkrankungen"
        }]
      },
      "subject" : {
        "reference" : "urn:uuid:0fed5ebe-ca8f-4ad1-aba4-ddad45bd6cc8",
        "display" : "Susanne Testpatientin"
      },
      "effectiveDateTime" : "2024-02-08T08:30:00+01:00",
      "performer" : [{
        "reference" : "urn:uuid:82f802a7-56a9-49b4-a675-95da08f0d7a6",
        "display" : "Amadeus Spital"
      }],
      "valueCodeableConcept" : {
        "coding" : [{
          "system" : "http://snomed.info/sct",
          "code" : "723509005",
          "display" : "High risk"
        }]
      }
    }
  },
  {
    "fullUrl" : "urn:uuid:39cd75da-2456-46a9-a703-89d8b65ae63b",
    "resource" : {
      "resourceType" : "CarePlan",
      "id" : "careplan-diabetes",
      "meta" : {
        "profile" : ["https://fhir.hl7.at/elga-iv-diabetes-r4/StructureDefinition/diab-careplan"]
      },
      "text" : {
        "status" : "additional",
        "div" : "<div xmlns=\"http://www.w3.org/1999/xhtml\"><p>Ernährungsschulung bei Diabetes mellitus Typ II</p></div>"
      },
      "identifier" : [{
        "value" : "12345"
      }],
      "instantiatesUri" : ["https://www.sozialministerium.at/2025/Ernaehrungsschulung-bei-Diabetes-mellitus-Typ-II"],
      "status" : "active",
      "intent" : "plan",
      "category" : [{
        "coding" : [{
          "code" : "428274007"
        }]
      }],
      "title" : "Ernährungsschulung bei Diabetes mellitus Typ II",
      "description" : "Diese Schulung beinhaltet detaillierte Ernährungsinformationten für Diabetes mellitus Typ II Patienten",
      "subject" : {
        "reference" : "urn:uuid:0fed5ebe-ca8f-4ad1-aba4-ddad45bd6cc8",
        "display" : "Susanne Testpatientin"
      },
      "period" : {
        "start" : "2025-03-01",
        "end" : "2025-03-31"
      },
      "created" : "2025-02-17",
      "author" : {
        "reference" : "urn:uuid:75db30ee-7028-486c-929a-c5126837f472",
        "display" : "Dr. Gabriele IV-Ärztin"
      },
      "addresses" : [{
        "reference" : "urn:uuid:61db6213-22ab-405a-825a-0ae6905fad1e",
        "display" : "Diabetes mellitus aufgrund einer Verletzung der Bauchspeicheldrüse"
      }],
      "activity" : [{
        "outcomeCodeableConcept" : [{
          "coding" : [{
            "system" : "http://snomed.info/sct",
            "code" : "408443003",
            "display" : "Bereitstellung von Patienteninformationen"
          }]
        }],
        "detail" : {
          "code" : {
            "coding" : [{
              "system" : "http://snomed.info/sct",
              "code" : "409063005",
              "display" : "Beratung"
            },
            {
              "system" : "http://snomed.info/sct",
              "code" : "1293061000168108",
              "display" : "Dient zur Förderung der Gesundheit"
            }]
          },
          "status" : "completed",
          "statusReason" : {
            "text" : "Der Hausarzt informierte die Patienten über die Schulung zur Ernährung."
          },
          "doNotPerform" : false,
          "scheduledTiming" : {
            "repeat" : {
              "frequency" : 1,
              "period" : 1,
              "periodUnit" : "d"
            }
          },
          "location" : {
            "display" : "Informationsveranstaltung des Diabetesverbandes"
          },
          "performer" : [{
            "reference" : "urn:uuid:75db30ee-7028-486c-929a-c5126837f472",
            "display" : "Dr. Gabriele IV-Ärztin"
          }]
        }
      }]
    }
  },
  {
    "fullUrl" : "urn:uuid:acac4c94-a752-4cf5-9a6b-0d84237d5076",
    "resource" : {
      "resourceType" : "MedicationStatement",
      "id" : "medicationStatement-Ebetrexat",
      "meta" : {
        "profile" : ["https://fhir.hl7.at/elga/aps/r4/StructureDefinition/at-aps-medicationstatement"]
      },
      "text" : {
        "status" : "generated",
        "div" : "<div xmlns=\"http://www.w3.org/1999/xhtml\"><a name=\"MedicationStatement_medicationStatement-Ebetrexat\"> </a><p class=\"res-header-id\"><b>Generated Narrative: MedicationStatement medicationStatement-Ebetrexat</b></p><a name=\"medicationStatement-Ebetrexat\"> </a><a name=\"hcmedicationStatement-Ebetrexat\"> </a><a name=\"medicationStatement-Ebetrexat-en-US\"> </a><div style=\"display: inline-block; background-color: #d9e0e7; padding: 6px; margin: 4px; border: 1px solid #8da1b4; border-radius: 5px; line-height: 60%\"><p style=\"margin-bottom: 0px\"/><p style=\"margin-bottom: 0px\">Profile: <a href=\"file://C:\\Users\\aklostermann\\FHIR_local\\ELGA-AustrianPatientSummary-R4\\output/StructureDefinition-at-aps-medicationstatement.html\">AT APS MedicationStatement</a></p></div><p><b>status</b>: Active</p><p><b>medication</b>: <span title=\"Codes:{https://termgit.elga.gv.at/CodeSystem/asp-liste 2443061}\">EBETREXAT TBL 10MG</span></p><p><b>subject</b>: <a href=\"Bundle-ex-diab-journey-1.html#urn-uuid-0fed5ebe-ca8f-4ad1-aba4-ddad45bd6cc8\">Susanne Testpatientin</a></p><p><b>effective</b>: 2024-02-08 10:31:58+0200 --&gt; (ongoing)</p><blockquote><p><b>dosage</b></p><p><b>sequence</b>: 1</p><p><b>timing</b>: Night, Once</p><p><b>route</b>: <span title=\"Codes:{http://snomed.info/sct 26643006}\">Oral use</span></p><h3>DoseAndRates</h3><table class=\"grid\"><tr><td style=\"display: none\">-</td><td><b>Dose[x]</b></td></tr><tr><td style=\"display: none\">*</td><td>2 Tablet<span style=\"background: LightGoldenRodYellow\"> (Details:   code15054000&quot; = '15054000&quot;')</span></td></tr></table></blockquote></div>"
      },
      "status" : "active",
      "medicationCodeableConcept" : {
        "coding" : [{
          "system" : "https://termgit.elga.gv.at/CodeSystem/asp-liste",
          "code" : "2443061",
          "display" : "EBETREXAT TBL 10MG"
        }]
      },
      "subject" : {
        "reference" : "urn:uuid:0fed5ebe-ca8f-4ad1-aba4-ddad45bd6cc8",
        "display" : "Susanne Testpatientin"
      },
      "effectivePeriod" : {
        "start" : "2024-02-08T10:31:58+02:00"
      },
      "dosage" : [{
        "sequence" : 1,
        "timing" : {
          "repeat" : {
            "dayOfWeek" : ["fri"],
            "when" : ["NIGHT"]
          }
        },
        "route" : {
          "coding" : [{
            "system" : "http://snomed.info/sct",
            "code" : "26643006",
            "display" : "Oral use"
          }]
        },
        "doseAndRate" : [{
          "doseQuantity" : {
            "value" : 2,
            "unit" : "Tablet",
            "system" : "https://standardterms.edqm.eu/",
            "code" : "15054000\""
          }
        }]
      }]
    }
  },
  {
    "fullUrl" : "urn:uuid:768eb9cb-00f3-4ab1-bfc2-ff835cb3b89b",
    "resource" : {
      "resourceType" : "AllergyIntolerance",
      "id" : "allgery-Benzylpenicillin-Natrium",
      "meta" : {
        "profile" : ["https://fhir.hl7.at/elga/aps/r4/StructureDefinition/at-aps-allergyintolerance"]
      },
      "text" : {
        "status" : "generated",
        "div" : "<div xmlns=\"http://www.w3.org/1999/xhtml\"><a name=\"AllergyIntolerance_allgery-Benzylpenicillin-Natrium\"> </a><p class=\"res-header-id\"><b>Generated Narrative: AllergyIntolerance allgery-Benzylpenicillin-Natrium</b></p><a name=\"allgery-Benzylpenicillin-Natrium\"> </a><a name=\"hcallgery-Benzylpenicillin-Natrium\"> </a><a name=\"allgery-Benzylpenicillin-Natrium-en-US\"> </a><div style=\"display: inline-block; background-color: #d9e0e7; padding: 6px; margin: 4px; border: 1px solid #8da1b4; border-radius: 5px; line-height: 60%\"><p style=\"margin-bottom: 0px\"/><p style=\"margin-bottom: 0px\">Profile: <a href=\"file://C:\\Users\\aklostermann\\FHIR_local\\ELGA-AustrianPatientSummary-R4\\output/StructureDefinition-at-aps-allergyintolerance.html\">AT APS AllergyIntolerance</a></p></div><p><b>clinicalStatus</b>: <span title=\"Codes:{http://terminology.hl7.org/CodeSystem/allergyintolerance-clinical active}\">Active</span></p><p><b>code</b>: <span title=\"Codes:{http://snomed.info/sct 89055006}\">Benzylpenicillin Natrium</span></p><p><b>patient</b>: <a href=\"Bundle-ex-diab-journey-1.html#urn-uuid-0fed5ebe-ca8f-4ad1-aba4-ddad45bd6cc8\">Susanne Testpatientin</a></p><p><b>asserter</b>: <a href=\"Bundle-ex-diab-journey-1.html#urn-uuid-75db30ee-7028-486c-929a-c5126837f472\">Dr. Gabriele IV-Ärztin</a></p></div>"
      },
      "clinicalStatus" : {
        "coding" : [{
          "system" : "http://terminology.hl7.org/CodeSystem/allergyintolerance-clinical",
          "code" : "active",
          "display" : "Active"
        }]
      },
      "code" : {
        "coding" : [{
          "system" : "http://snomed.info/sct",
          "code" : "89055006",
          "display" : "Benzylpenicillin Natrium"
        }]
      },
      "patient" : {
        "reference" : "urn:uuid:0fed5ebe-ca8f-4ad1-aba4-ddad45bd6cc8",
        "display" : "Susanne Testpatientin"
      },
      "asserter" : {
        "reference" : "urn:uuid:75db30ee-7028-486c-929a-c5126837f472",
        "display" : "Dr. Gabriele IV-Ärztin"
      }
    }
  },
  {
    "fullUrl" : "urn:uuid:75c46c35-8f4e-4232-b026-5672c60d076a",
    "resource" : {
      "resourceType" : "Procedure",
      "id" : "procedureHistory-Ersatzhuefte",
      "meta" : {
        "profile" : ["https://fhir.hl7.at/elga/aps/r4/StructureDefinition/at-aps-Procedure"]
      },
      "text" : {
        "status" : "generated",
        "div" : "<div xmlns=\"http://www.w3.org/1999/xhtml\"><a name=\"Procedure_procedureHistory-Ersatzhuefte\"> </a><p class=\"res-header-id\"><b>Generated Narrative: Procedure procedureHistory-Ersatzhuefte</b></p><a name=\"procedureHistory-Ersatzhuefte\"> </a><a name=\"hcprocedureHistory-Ersatzhuefte\"> </a><a name=\"procedureHistory-Ersatzhuefte-en-US\"> </a><div style=\"display: inline-block; background-color: #d9e0e7; padding: 6px; margin: 4px; border: 1px solid #8da1b4; border-radius: 5px; line-height: 60%\"><p style=\"margin-bottom: 0px\"/><p style=\"margin-bottom: 0px\">Profile: <a href=\"file://C:\\Users\\aklostermann\\FHIR_local\\ELGA-AustrianPatientSummary-R4\\output/StructureDefinition-at-aps-Procedure.html\">AT APS Procedure</a></p></div><p><b>status</b>: Completed</p><p><b>code</b>: <span title=\"Codes:{http://snomed.info/sct 770606008}\">Totalersatz des linken Hüftgelenks</span></p><p><b>subject</b>: <a href=\"Bundle-ex-diab-journey-1.html#urn-uuid-0fed5ebe-ca8f-4ad1-aba4-ddad45bd6cc8\">Susanne Testpatientin</a></p><p><b>performed</b>: 2010</p></div>"
      },
      "status" : "completed",
      "code" : {
        "coding" : [{
          "system" : "http://snomed.info/sct",
          "code" : "770606008",
          "display" : "Totalersatz des linken Hüftgelenks"
        }]
      },
      "subject" : {
        "reference" : "urn:uuid:0fed5ebe-ca8f-4ad1-aba4-ddad45bd6cc8",
        "display" : "Susanne Testpatientin"
      },
      "performedDateTime" : "2010"
    }
  },
  {
    "fullUrl" : "urn:uuid:725bcf71-22e6-473b-a879-49a4b63cd654",
    "resource" : {
      "resourceType" : "Observation",
      "id" : "diagnosticResults-Labor-AB0-Blut",
      "meta" : {
        "profile" : ["https://fhir.hl7.at/elga/aps/r4/StructureDefinition/at-aps-observationresultslaboratorypathology"]
      },
      "text" : {
        "status" : "generated",
        "div" : "<div xmlns=\"http://www.w3.org/1999/xhtml\"><a name=\"Observation_diagnosticResults-Labor-AB0-Blut\"> </a><p class=\"res-header-id\"><b>Generated Narrative: Observation diagnosticResults-Labor-AB0-Blut</b></p><a name=\"diagnosticResults-Labor-AB0-Blut\"> </a><a name=\"hcdiagnosticResults-Labor-AB0-Blut\"> </a><a name=\"diagnosticResults-Labor-AB0-Blut-en-US\"> </a><div style=\"display: inline-block; background-color: #d9e0e7; padding: 6px; margin: 4px; border: 1px solid #8da1b4; border-radius: 5px; line-height: 60%\"><p style=\"margin-bottom: 0px\"/><p style=\"margin-bottom: 0px\">Profile: <a href=\"file://C:\\Users\\aklostermann\\FHIR_local\\ELGA-AustrianPatientSummary-R4\\output/StructureDefinition-at-aps-observationresultslaboratorypathology.html\">AT APS Observation Results Laboratory Pathology</a></p></div><p><b>status</b>: Final</p><p><b>category</b>: <span title=\"Codes:{http://terminology.hl7.org/CodeSystem/observation-category laboratory}\">Laboratory</span>, <span title=\"Codes:{https://termgit.elga.gv.at/CodeSystem/elga-laborparameterergaenzung 300}\">Hämatologie</span></p><p><b>code</b>: <span title=\"Codes:{http://loinc.org 882-1}\">ABO- und Rh-Gruppe [Typ] im Blut</span></p><p><b>subject</b>: <a href=\"Bundle-ex-diab-journey-1.html#urn-uuid-0fed5ebe-ca8f-4ad1-aba4-ddad45bd6cc8\">Susanne Testpatientin</a></p><p><b>effective</b>: 2024-02-08 07:34:06+0100</p><p><b>performer</b>: <a href=\"Bundle-ex-diab-journey-1.html#urn-uuid-82f802a7-56a9-49b4-a675-95da08f0d7a6\">Amadeus Spital</a></p><p><b>value</b>: <span title=\"Codes:{http://snomed.info/sct 278149003}\">Blood group A Rh(D) positive (finding)</span></p><p><b>specimen</b>: <a href=\"Bundle-example-diabetes-leitdokument-1-opt.html#urn-uuid-e3567418-073e-4fd7-af4e-5fd7ee4785f7\">Blutprobe</a></p></div>"
      },
      "status" : "final",
      "category" : [{
        "coding" : [{
          "system" : "http://terminology.hl7.org/CodeSystem/observation-category",
          "code" : "laboratory",
          "display" : "Laboratory"
        }]
      },
      {
        "coding" : [{
          "system" : "https://termgit.elga.gv.at/CodeSystem/elga-laborparameterergaenzung",
          "code" : "300",
          "display" : "Hämatologie"
        }]
      }],
      "code" : {
        "coding" : [{
          "system" : "http://loinc.org",
          "code" : "882-1",
          "display" : "ABO- und Rh-Gruppe [Typ] im Blut"
        }]
      },
      "subject" : {
        "reference" : "urn:uuid:0fed5ebe-ca8f-4ad1-aba4-ddad45bd6cc8",
        "display" : "Susanne Testpatientin"
      },
      "effectiveDateTime" : "2024-02-08T07:34:06+01:00",
      "performer" : [{
        "reference" : "urn:uuid:82f802a7-56a9-49b4-a675-95da08f0d7a6",
        "display" : "Amadeus Spital"
      }],
      "valueCodeableConcept" : {
        "coding" : [{
          "system" : "http://snomed.info/sct",
          "code" : "278149003",
          "display" : "Blood group A Rh(D) positive (finding)"
        }]
      },
      "specimen" : {
        "reference" : "urn:uuid:e3567418-073e-4fd7-af4e-5fd7ee4785f7",
        "display" : "Blutprobe"
      }
    }
  },
  {
    "fullUrl" : "urn:uuid:e3567418-073e-4fd7-af4e-5fd7ee4785f7",
    "resource" : {
      "resourceType" : "Specimen",
      "id" : "diagnosticResult-Labor-Blut",
      "meta" : {
        "profile" : ["https://fhir.hl7.at/elga/aps/r4/StructureDefinition/at-aps-specimen"]
      },
      "text" : {
        "status" : "generated",
        "div" : "<div xmlns=\"http://www.w3.org/1999/xhtml\"><a name=\"Specimen_diagnosticResult-Labor-Blut\"> </a><p class=\"res-header-id\"><b>Generated Narrative: Specimen diagnosticResult-Labor-Blut</b></p><a name=\"diagnosticResult-Labor-Blut\"> </a><a name=\"hcdiagnosticResult-Labor-Blut\"> </a><a name=\"diagnosticResult-Labor-Blut-en-US\"> </a><div style=\"display: inline-block; background-color: #d9e0e7; padding: 6px; margin: 4px; border: 1px solid #8da1b4; border-radius: 5px; line-height: 60%\"><p style=\"margin-bottom: 0px\"/><p style=\"margin-bottom: 0px\">Profile: <a href=\"file://C:\\Users\\aklostermann\\FHIR_local\\ELGA-AustrianPatientSummary-R4\\output/StructureDefinition-at-aps-specimen.html\">AT APS Specimen</a></p></div><p><b>status</b>: Unavailable</p><p><b>type</b>: <span title=\"Codes:{http://snomed.info/sct 119297000}\">Blutprobe</span></p><p><b>subject</b>: <a href=\"Bundle-ex-diab-journey-1.html#urn-uuid-0fed5ebe-ca8f-4ad1-aba4-ddad45bd6cc8\">Susanne Testpatientin</a></p></div>"
      },
      "status" : "unavailable",
      "type" : {
        "coding" : [{
          "system" : "http://snomed.info/sct",
          "code" : "119297000",
          "display" : "Blutprobe"
        }]
      },
      "subject" : {
        "reference" : "urn:uuid:0fed5ebe-ca8f-4ad1-aba4-ddad45bd6cc8",
        "display" : "Susanne Testpatientin"
      }
    }
  },
  {
    "fullUrl" : "urn:uuid:74c5e186-d765-4c93-a624-c9b0746e8142",
    "resource" : {
      "resourceType" : "Observation",
      "id" : "vitalsign-Koerpergroesse",
      "meta" : {
        "profile" : ["https://fhir.hl7.at/elga/aps/r4/StructureDefinition/at-aps-observationvitalsigns"]
      },
      "language" : "de-AT",
      "text" : {
        "status" : "generated",
        "div" : "<div xmlns=\"http://www.w3.org/1999/xhtml\" xml:lang=\"de-AT\" lang=\"de-AT\"><a name=\"Observation_vitalsign-Koerpergroesse\"> </a><p class=\"res-header-id\"><b>Generated Narrative: Observation vitalsign-Koerpergroesse</b></p><a name=\"vitalsign-Koerpergroesse\"> </a><a name=\"hcvitalsign-Koerpergroesse\"> </a><a name=\"vitalsign-Koerpergroesse-en-US\"> </a><div style=\"display: inline-block; background-color: #d9e0e7; padding: 6px; margin: 4px; border: 1px solid #8da1b4; border-radius: 5px; line-height: 60%\"><p style=\"margin-bottom: 0px\">Language: de-AT</p><p style=\"margin-bottom: 0px\">Profile: <a href=\"file://C:\\Users\\aklostermann\\FHIR_local\\ELGA-AustrianPatientSummary-R4\\output/StructureDefinition-at-aps-observationvitalsigns.html\">AT APS Observation Vital Signs</a></p></div><p><b>status</b>: Final</p><p><b>category</b>: <span title=\"Codes:{http://terminology.hl7.org/CodeSystem/observation-category vital-signs}\">Vital Signs</span></p><p><b>code</b>: <span title=\"Codes:{http://loinc.org 8302-2}\">Körpergröße</span></p><p><b>subject</b>: <a href=\"Bundle-ex-diab-journey-1.html#urn-uuid-0fed5ebe-ca8f-4ad1-aba4-ddad45bd6cc8\">Susanne Testpatientin</a></p><p><b>effective</b>: 2024-02-08 08:30:00+0100</p><p><b>performer</b>: <a href=\"Bundle-ex-diab-journey-1.html#urn-uuid-82f802a7-56a9-49b4-a675-95da08f0d7a6\">Amadeus Spital</a></p><p><b>value</b>: 173 cm<span style=\"background: LightGoldenRodYellow\"> (Details: UCUM  codecm = 'cm')</span></p></div>"
      },
      "status" : "final",
      "category" : [{
        "coding" : [{
          "system" : "http://terminology.hl7.org/CodeSystem/observation-category",
          "code" : "vital-signs",
          "display" : "Vital Signs"
        }]
      }],
      "code" : {
        "coding" : [{
          "system" : "http://loinc.org",
          "code" : "8302-2",
          "display" : "Körpergröße"
        }]
      },
      "subject" : {
        "reference" : "urn:uuid:0fed5ebe-ca8f-4ad1-aba4-ddad45bd6cc8",
        "display" : "Susanne Testpatientin"
      },
      "effectiveDateTime" : "2024-02-08T08:30:00+01:00",
      "performer" : [{
        "reference" : "urn:uuid:82f802a7-56a9-49b4-a675-95da08f0d7a6",
        "display" : "Amadeus Spital"
      }],
      "valueQuantity" : {
        "value" : 173,
        "unit" : "cm",
        "system" : "http://unitsofmeasure.org",
        "code" : "cm"
      }
    }
  },
  {
    "fullUrl" : "urn:uuid:9add5c32-1ded-43d6-b163-c3fe13f94984",
    "resource" : {
      "resourceType" : "Condition",
      "id" : "pastIllness-Masern",
      "meta" : {
        "profile" : ["https://fhir.hl7.at/elga/aps/r4/StructureDefinition/at-aps-condition"]
      },
      "text" : {
        "status" : "generated",
        "div" : "<div xmlns=\"http://www.w3.org/1999/xhtml\"><a name=\"Condition_pastIllness-Masern\"> </a><p class=\"res-header-id\"><b>Generated Narrative: Condition pastIllness-Masern</b></p><a name=\"pastIllness-Masern\"> </a><a name=\"hcpastIllness-Masern\"> </a><a name=\"pastIllness-Masern-en-US\"> </a><div style=\"display: inline-block; background-color: #d9e0e7; padding: 6px; margin: 4px; border: 1px solid #8da1b4; border-radius: 5px; line-height: 60%\"><p style=\"margin-bottom: 0px\"/><p style=\"margin-bottom: 0px\">Profile: <a href=\"file://C:\\Users\\aklostermann\\FHIR_local\\ELGA-AustrianPatientSummary-R4\\output/StructureDefinition-at-aps-condition.html\">AT APS Condition</a></p></div><p><b>clinicalStatus</b>: <span title=\"Codes:{http://terminology.hl7.org/CodeSystem/condition-clinical resolved}\">Resolved</span></p><p><b>verificationStatus</b>: <span title=\"Codes:{http://terminology.hl7.org/CodeSystem/condition-ver-status confirmed}\">Confirmed</span></p><p><b>category</b>: <span title=\"Codes:{http://terminology.hl7.org/CodeSystem/condition-category problem-list-item}\">Problem List Item</span></p><p><b>code</b>: <span title=\"Codes:{http://snomed.info/sct 161419000}\">Zustand nach Masern</span></p><p><b>subject</b>: <a href=\"Bundle-ex-diab-journey-1.html#urn-uuid-0fed5ebe-ca8f-4ad1-aba4-ddad45bd6cc8\">Susanne Testpatientin</a></p></div>"
      },
      "clinicalStatus" : {
        "coding" : [{
          "system" : "http://terminology.hl7.org/CodeSystem/condition-clinical",
          "code" : "resolved",
          "display" : "Resolved"
        }]
      },
      "verificationStatus" : {
        "coding" : [{
          "system" : "http://terminology.hl7.org/CodeSystem/condition-ver-status",
          "code" : "confirmed",
          "display" : "Confirmed"
        }]
      },
      "category" : [{
        "coding" : [{
          "system" : "http://terminology.hl7.org/CodeSystem/condition-category",
          "code" : "problem-list-item",
          "display" : "Problem List Item"
        }]
      }],
      "code" : {
        "coding" : [{
          "system" : "http://snomed.info/sct",
          "code" : "161419000",
          "display" : "Zustand nach Masern"
        }]
      },
      "subject" : {
        "reference" : "urn:uuid:0fed5ebe-ca8f-4ad1-aba4-ddad45bd6cc8",
        "display" : "Susanne Testpatientin"
      }
    }
  },
  {
    "fullUrl" : "urn:uuid:82301518-66ca-4b4c-821d-087adf643cc9",
    "resource" : {
      "resourceType" : "Condition",
      "id" : "pastIllness-Windpocken",
      "meta" : {
        "profile" : ["https://fhir.hl7.at/elga/aps/r4/StructureDefinition/at-aps-condition"]
      },
      "text" : {
        "status" : "generated",
        "div" : "<div xmlns=\"http://www.w3.org/1999/xhtml\"><a name=\"Condition_pastIllness-Windpocken\"> </a><p class=\"res-header-id\"><b>Generated Narrative: Condition pastIllness-Windpocken</b></p><a name=\"pastIllness-Windpocken\"> </a><a name=\"hcpastIllness-Windpocken\"> </a><a name=\"pastIllness-Windpocken-en-US\"> </a><div style=\"display: inline-block; background-color: #d9e0e7; padding: 6px; margin: 4px; border: 1px solid #8da1b4; border-radius: 5px; line-height: 60%\"><p style=\"margin-bottom: 0px\"/><p style=\"margin-bottom: 0px\">Profile: <a href=\"file://C:\\Users\\aklostermann\\FHIR_local\\ELGA-AustrianPatientSummary-R4\\output/StructureDefinition-at-aps-condition.html\">AT APS Condition</a></p></div><p><b>clinicalStatus</b>: <span title=\"Codes:{http://terminology.hl7.org/CodeSystem/condition-clinical resolved}\">Resolved</span></p><p><b>verificationStatus</b>: <span title=\"Codes:{http://terminology.hl7.org/CodeSystem/condition-ver-status confirmed}\">Confirmed</span></p><p><b>category</b>: <span title=\"Codes:{http://terminology.hl7.org/CodeSystem/condition-category problem-list-item}\">Problem List Item</span></p><p><b>code</b>: <span title=\"Codes:{http://snomed.info/sct 161423008}\">Zustand nach Windpocken</span></p><p><b>subject</b>: <a href=\"Bundle-ex-diab-journey-1.html#urn-uuid-0fed5ebe-ca8f-4ad1-aba4-ddad45bd6cc8\">Susanne Testpatientin</a></p></div>"
      },
      "clinicalStatus" : {
        "coding" : [{
          "system" : "http://terminology.hl7.org/CodeSystem/condition-clinical",
          "code" : "resolved",
          "display" : "Resolved"
        }]
      },
      "verificationStatus" : {
        "coding" : [{
          "system" : "http://terminology.hl7.org/CodeSystem/condition-ver-status",
          "code" : "confirmed",
          "display" : "Confirmed"
        }]
      },
      "category" : [{
        "coding" : [{
          "system" : "http://terminology.hl7.org/CodeSystem/condition-category",
          "code" : "problem-list-item",
          "display" : "Problem List Item"
        }]
      }],
      "code" : {
        "coding" : [{
          "system" : "http://snomed.info/sct",
          "code" : "161423008",
          "display" : "Zustand nach Windpocken"
        }]
      },
      "subject" : {
        "reference" : "urn:uuid:0fed5ebe-ca8f-4ad1-aba4-ddad45bd6cc8",
        "display" : "Susanne Testpatientin"
      }
    }
  },
  {
    "fullUrl" : "urn:uuid:d0a5bbf1-6d01-4d44-bac5-05f12c98411e",
    "resource" : {
      "resourceType" : "Observation",
      "id" : "socialhistory-Rauchherstatus",
      "meta" : {
        "profile" : ["https://fhir.hl7.at/elga/aps/r4/StructureDefinition/at-aps-observationtobaccouse"]
      },
      "text" : {
        "status" : "generated",
        "div" : "<div xmlns=\"http://www.w3.org/1999/xhtml\"><a name=\"Observation_socialhistory-Rauchherstatus\"> </a><p class=\"res-header-id\"><b>Generated Narrative: Observation socialhistory-Rauchherstatus</b></p><a name=\"socialhistory-Rauchherstatus\"> </a><a name=\"hcsocialhistory-Rauchherstatus\"> </a><a name=\"socialhistory-Rauchherstatus-en-US\"> </a><div style=\"display: inline-block; background-color: #d9e0e7; padding: 6px; margin: 4px; border: 1px solid #8da1b4; border-radius: 5px; line-height: 60%\"><p style=\"margin-bottom: 0px\"/><p style=\"margin-bottom: 0px\">Profile: <a href=\"file://C:\\Users\\aklostermann\\FHIR_local\\ELGA-AustrianPatientSummary-R4\\output/StructureDefinition-at-aps-observationtobaccouse.html\">AT APS Observation Tobacco Use</a></p></div><p><b>status</b>: Final</p><p><b>code</b>: <span title=\"Codes:{http://loinc.org 72166-2}\">Tobacco smoking status</span></p><p><b>subject</b>: <a href=\"Bundle-ex-diab-journey-1.html#urn-uuid-0fed5ebe-ca8f-4ad1-aba4-ddad45bd6cc8\">Susanne Testpatientin</a></p><p><b>effective</b>: 2019-07-15</p><p><b>performer</b>: <a href=\"Bundle-ex-diab-journey-1.html#urn-uuid-82f802a7-56a9-49b4-a675-95da08f0d7a6\">Amadeus Spital</a></p><p><b>value</b>: <span title=\"Codes:{http://snomed.info/sct 8517006}\">Ehemalig rauchende Person</span></p></div>"
      },
      "status" : "final",
      "code" : {
        "coding" : [{
          "system" : "http://loinc.org",
          "code" : "72166-2",
          "display" : "Tobacco smoking status"
        }]
      },
      "subject" : {
        "reference" : "urn:uuid:0fed5ebe-ca8f-4ad1-aba4-ddad45bd6cc8",
        "display" : "Susanne Testpatientin"
      },
      "effectiveDateTime" : "2019-07-15",
      "performer" : [{
        "reference" : "urn:uuid:82f802a7-56a9-49b4-a675-95da08f0d7a6",
        "display" : "Amadeus Spital"
      }],
      "valueCodeableConcept" : {
        "coding" : [{
          "system" : "http://snomed.info/sct",
          "code" : "8517006",
          "display" : "Ehemalig rauchende Person"
        }]
      }
    }
  },
  {
    "fullUrl" : "urn:uuid:d0a5bbf1-6d01-4d44-bac5-05f12c984119",
    "resource" : {
      "resourceType" : "Observation",
      "id" : "socialhistory-Koerperliche-Bewegung",
      "text" : {
        "status" : "generated",
        "div" : "<div xmlns=\"http://www.w3.org/1999/xhtml\"><a name=\"Observation_socialhistory-Koerperliche-Bewegung\"> </a><p class=\"res-header-id\"><b>Generated Narrative: Observation socialhistory-Koerperliche-Bewegung</b></p><a name=\"socialhistory-Koerperliche-Bewegung\"> </a><a name=\"hcsocialhistory-Koerperliche-Bewegung\"> </a><a name=\"socialhistory-Koerperliche-Bewegung-en-US\"> </a><p><b>status</b>: Final</p><p><b>code</b>: <span title=\"Codes:{http://snomed.info/sct 61686008}\">Körperliche Bewegung</span></p><p><b>subject</b>: <a href=\"Bundle-ex-diab-journey-1.html#urn-uuid-0fed5ebe-ca8f-4ad1-aba4-ddad45bd6cc8\">Susanne Testpatientin</a></p><p><b>effective</b>: 2024-02-08 08:30:00+0100</p><p><b>performer</b>: <a href=\"Bundle-ex-diab-journey-1.html#urn-uuid-82f802a7-56a9-49b4-a675-95da08f0d7a6\">Amadeus Spital</a></p><p><b>value</b>: &gt;2.5 h<span style=\"background: LightGoldenRodYellow\"> (Details: UCUM  codeh = 'h')</span>/1 wk<span style=\"background: LightGoldenRodYellow\"> (Details: UCUM  codewk = 'wk')</span></p></div>"
      },
      "status" : "final",
      "code" : {
        "coding" : [{
          "system" : "http://snomed.info/sct",
          "code" : "61686008",
          "display" : "Körperliche Bewegung"
        }]
      },
      "subject" : {
        "reference" : "urn:uuid:0fed5ebe-ca8f-4ad1-aba4-ddad45bd6cc8",
        "display" : "Susanne Testpatientin"
      },
      "effectiveDateTime" : "2024-02-08T08:30:00+01:00",
      "performer" : [{
        "reference" : "urn:uuid:82f802a7-56a9-49b4-a675-95da08f0d7a6",
        "display" : "Amadeus Spital"
      }],
      "valueRatio" : {
        "numerator" : {
          "value" : 2.5,
          "comparator" : ">",
          "unit" : "h",
          "system" : "http://unitsofmeasure.org",
          "code" : "h"
        },
        "denominator" : {
          "value" : 1,
          "unit" : "wk",
          "system" : "http://unitsofmeasure.org",
          "code" : "wk"
        }
      }
    }
  },
  {
    "fullUrl" : "urn:uuid:490dab5c-271e-4736-8a6b-5f6f089d0a05",
    "resource" : {
      "resourceType" : "DeviceUseStatement",
      "id" : "deviceUse-Insulinpumpe",
      "meta" : {
        "profile" : ["https://fhir.hl7.at/elga/aps/r4/StructureDefinition/at-aps-deviceusestatement"]
      },
      "text" : {
        "status" : "extensions",
        "div" : "<div xmlns=\"http://www.w3.org/1999/xhtml\"><a name=\"DeviceUseStatement_deviceUse-Insulinpumpe\"> </a><p class=\"res-header-id\"><b>Generated Narrative: DeviceUseStatement deviceUse-Insulinpumpe</b></p><a name=\"deviceUse-Insulinpumpe\"> </a><a name=\"hcdeviceUse-Insulinpumpe\"> </a><a name=\"deviceUse-Insulinpumpe-en-US\"> </a><div style=\"display: inline-block; background-color: #d9e0e7; padding: 6px; margin: 4px; border: 1px solid #8da1b4; border-radius: 5px; line-height: 60%\"><p style=\"margin-bottom: 0px\"/><p style=\"margin-bottom: 0px\">Profile: <a href=\"file://C:\\Users\\aklostermann\\FHIR_local\\ELGA-AustrianPatientSummary-R4\\output/StructureDefinition-at-aps-deviceusestatement.html\">AT APS DeviceUseStatement</a></p></div><p><b>status</b>: Active</p><p><b>subject</b>: <a href=\"Bundle-ex-diab-journey-1.html#urn-uuid-0fed5ebe-ca8f-4ad1-aba4-ddad45bd6cc8\">Susanne Testpatientin</a></p><p><b>timing</b>: Absent because : unknown</p><p><b>device</b>: <a href=\"Bundle-example-diabetes-leitdokument-1-opt.html#urn-uuid-a1a80313-a757-4062-b0d7-d04fd2a04602\">Verwendetes Gerät: Insulinpumpe</a></p></div>"
      },
      "status" : "active",
      "subject" : {
        "reference" : "urn:uuid:0fed5ebe-ca8f-4ad1-aba4-ddad45bd6cc8",
        "display" : "Susanne Testpatientin"
      },
      "_timingDateTime" : {
        "extension" : [{
          "url" : "http://hl7.org/fhir/StructureDefinition/data-absent-reason",
          "valueCode" : "unknown"
        }]
      },
      "device" : {
        "reference" : "urn:uuid:a1a80313-a757-4062-b0d7-d04fd2a04602",
        "display" : "Verwendetes Gerät: Insulinpumpe"
      }
    }
  },
  {
    "fullUrl" : "urn:uuid:a1a80313-a757-4062-b0d7-d04fd2a04602",
    "resource" : {
      "resourceType" : "Device",
      "id" : "device-Insulinpumpe",
      "meta" : {
        "profile" : ["https://fhir.hl7.at/elga/aps/r4/StructureDefinition/at-aps-device"]
      },
      "text" : {
        "status" : "generated",
        "div" : "<div xmlns=\"http://www.w3.org/1999/xhtml\"><a name=\"Device_device-Insulinpumpe\"> </a><p class=\"res-header-id\"><b>Generated Narrative: Device device-Insulinpumpe</b></p><a name=\"device-Insulinpumpe\"> </a><a name=\"hcdevice-Insulinpumpe\"> </a><a name=\"device-Insulinpumpe-en-US\"> </a><div style=\"display: inline-block; background-color: #d9e0e7; padding: 6px; margin: 4px; border: 1px solid #8da1b4; border-radius: 5px; line-height: 60%\"><p style=\"margin-bottom: 0px\"/><p style=\"margin-bottom: 0px\">Profile: <a href=\"file://C:\\Users\\aklostermann\\FHIR_local\\ELGA-AustrianPatientSummary-R4\\output/StructureDefinition-at-aps-device.html\">AT APS Device</a></p></div><h3>DeviceNames</h3><table class=\"grid\"><tr><td style=\"display: none\">-</td><td><b>Name</b></td><td><b>Type</b></td></tr><tr><td style=\"display: none\">*</td><td>Insulinpumpe</td><td>other</td></tr></table><p><b>type</b>: <span title=\"Codes:{http://snomed.info/sct 69805005}\">Insulin pump</span></p><h3>Versions</h3><table class=\"grid\"><tr><td style=\"display: none\">-</td><td><b>Value</b></td></tr><tr><td style=\"display: none\">*</td><td>Insulin pump</td></tr></table><p><b>patient</b>: <a href=\"Bundle-ex-diab-journey-1.html#urn-uuid-0fed5ebe-ca8f-4ad1-aba4-ddad45bd6cc8\">Susanne Testpatientin</a></p></div>"
      },
      "deviceName" : [{
        "name" : "Insulinpumpe",
        "type" : "other"
      }],
      "type" : {
        "coding" : [{
          "system" : "http://snomed.info/sct",
          "code" : "69805005",
          "display" : "Insulin pump"
        }]
      },
      "version" : [{
        "value" : "Insulin pump"
      }],
      "patient" : {
        "reference" : "urn:uuid:0fed5ebe-ca8f-4ad1-aba4-ddad45bd6cc8",
        "display" : "Susanne Testpatientin"
      }
    }
  }]
}