{
  "resourceType" : "Bundle",
  "id" : "APS-2-preventive-medical-checkup",
  "meta" : {
    "profile" : ["https://fhir.hl7.at/elga/aps/r4/StructureDefinition/at-aps-bundle"]
  },
  "identifier" : {
    "system" : "http://system-to-be-defined.com",
    "value" : "63fef90a-be11-4ddf-aece-d77da15c4f20"
  },
  "type" : "document",
  "timestamp" : "2024-02-08T14:01:30+00:00",
  "entry" : [{
    "fullUrl" : "urn:uuid:212fdc76-ccc3-40bf-8cdd-82f2ef88bd7b",
    "resource" : {
      "resourceType" : "Composition",
      "id" : "APS-2-preventive-medical-checkup-composition",
      "meta" : {
        "profile" : ["https://fhir.hl7.at/elga/aps/r4/StructureDefinition/at-aps-composition"]
      },
      "text" : {
        "status" : "extensions",
        "div" : "<div xmlns=\"http://www.w3.org/1999/xhtml\"><a name=\"Composition_APS-2-preventive-medical-checkup-composition\"> </a><p class=\"res-header-id\"><b>Generated Narrative: Composition APS-2-preventive-medical-checkup-composition</b></p><a name=\"APS-2-preventive-medical-checkup-composition\"> </a><a name=\"hcAPS-2-preventive-medical-checkup-composition\"> </a><a name=\"APS-2-preventive-medical-checkup-composition-de-AT\"> </a><div style=\"display: inline-block; background-color: #d9e0e7; padding: 6px; margin: 4px; border: 1px solid #8da1b4; border-radius: 5px; line-height: 60%\"><p style=\"margin-bottom: 0px\"/><p style=\"margin-bottom: 0px\">Profile: <a href=\"StructureDefinition-at-aps-composition.html\">AT APS Composition</a></p></div><p><b>Country of Affiliation element</b>: AT</p><p><b>status</b>: Final</p><p><b>type</b>: <span title=\"Codes:{http://loinc.org 60591-5}\">Patient summary</span></p><p><b>date</b>: 2024-02-08 14:01:30+0000</p><p><b>author</b>: <a href=\"Bundle-APS-1-no-problems-medication-allergies.html#urn-uuid-75db30ee-7028-486c-929a-c5126837f472\">Bundle: identifier = http://system-to-be-defined.com#63fef90a-be11-4ddf-aece-d77da15c4f20; type = document; timestamp = 2024-02-08 14:01:30+0000</a></p><p><b>title</b>: International Patient Summary - Preventive Medical Checkup</p><h3>Attesters</h3><table class=\"grid\"><tr><td style=\"display: none\">-</td><td><b>Mode</b></td><td><b>Party</b></td></tr><tr><td style=\"display: none\">*</td><td>Personal</td><td><a href=\"Bundle-APS-1-no-problems-medication-allergies.html#urn-uuid-0fed5ebe-ca8f-4ad1-aba4-ddad45bd6cc8\">Bundle: identifier = http://system-to-be-defined.com#63fef90a-be11-4ddf-aece-d77da15c4f20; type = document; timestamp = 2024-02-08 14:01:30+0000</a></td></tr></table><p><b>custodian</b>: <a href=\"Bundle-APS-2-preventive-medical-checkup.html#urn-uuid-f6266e6a-f63d-4673-b2de-3dff11e619d6\">Bundle: identifier = http://system-to-be-defined.com#63fef90a-be11-4ddf-aece-d77da15c4f20; type = document; timestamp = 2024-02-08 14:01:30+0000</a></p></div>"
      },
      "extension" : [{
        "url" : "https://fhir.hl7.at/elga/aps/r4/StructureDefinition/country-of-affiliation",
        "valueString" : "AT"
      }],
      "status" : "final",
      "type" : {
        "coding" : [{
          "system" : "http://loinc.org",
          "code" : "60591-5",
          "display" : "Patient summary"
        }]
      },
      "subject" : {
        "reference" : "urn:uuid:0fed5ebe-ca8f-4ad1-aba4-ddad45bd6cc8"
      },
      "date" : "2024-02-08T14:01:30+00:00",
      "author" : [{
        "reference" : "urn:uuid:75db30ee-7028-486c-929a-c5126837f472"
      }],
      "title" : "International Patient Summary - Preventive Medical Checkup",
      "attester" : [{
        "mode" : "personal",
        "party" : {
          "reference" : "urn:uuid:0fed5ebe-ca8f-4ad1-aba4-ddad45bd6cc8"
        }
      }],
      "custodian" : {
        "reference" : "urn:uuid:f6266e6a-f63d-4673-b2de-3dff11e619d6"
      },
      "section" : [{
        "title" : "Problem List",
        "code" : {
          "coding" : [{
            "system" : "http://loinc.org",
            "code" : "11450-4",
            "display" : "Problem list - Reported"
          }]
        },
        "text" : {
          "status" : "empty",
          "div" : "<div xmlns=\"http://www.w3.org/1999/xhtml\"><p>narrative needs to be generated</p></div>"
        },
        "entry" : [{
          "reference" : "urn:uuid:72e85b9d-004d-4104-b166-86d129948bae"
        },
        {
          "reference" : "urn:uuid:82fa32f6-39d6-4fc9-9624-90a48fd3d3a5"
        },
        {
          "reference" : "urn:uuid:61db6213-22ab-405a-825a-0ae6905fad1e"
        },
        {
          "reference" : "urn:uuid:194cac84-0ee2-40b4-8dda-1866318d234c"
        },
        {
          "reference" : "urn:uuid:9d1c0b74-20c1-4603-a95a-71e6a1dc8fde"
        },
        {
          "reference" : "urn:uuid:b62c11b1-c478-4d04-ae6f-5f73543f2bb1"
        },
        {
          "reference" : "urn:uuid:8d3a18fb-3610-4bfb-9aa4-1169cc6dd2dd"
        },
        {
          "reference" : "urn:uuid:c5d400b1-b58b-41ed-9776-cfcdaf48f2e6"
        },
        {
          "reference" : "urn:uuid:32d90aaa-6577-4c5d-9771-d8f606ebf0b9"
        },
        {
          "reference" : "urn:uuid:2040058f-9537-4b26-9367-5ca5ac0ddb58"
        },
        {
          "reference" : "urn:uuid:b7b2a10d-7295-4fd1-ad21-81bca78dc45a"
        },
        {
          "reference" : "urn:uuid:ebfb60a8-a753-459d-a796-a191a4dbd91d"
        },
        {
          "reference" : "urn:uuid:3f3140b1-9478-4491-b7bf-10560f38da0e"
        },
        {
          "reference" : "urn:uuid:caa77334-fbfc-4129-a101-1b01c595dd91"
        },
        {
          "reference" : "urn:uuid:e66d8ac1-a124-4e94-be22-969c9b117ce5"
        },
        {
          "reference" : "urn:uuid:5ab717ff-c0a0-409e-83db-0fa6f8619f68"
        },
        {
          "reference" : "urn:uuid:fa46fccb-5c24-4a40-a478-d6da4902ff33"
        }]
      },
      {
        "title" : "Medication Summary",
        "code" : {
          "coding" : [{
            "system" : "http://loinc.org",
            "code" : "10160-0",
            "display" : "History of Medication use Narrative"
          }]
        },
        "text" : {
          "status" : "empty",
          "div" : "<div xmlns=\"http://www.w3.org/1999/xhtml\"><p>narrative needs to be generated</p></div>"
        },
        "entry" : [{
          "reference" : "urn:uuid:acac4c94-a752-4cf5-9a6b-0d84237d5076"
        },
        {
          "reference" : "urn:uuid:98285578-0bb6-42b2-908c-5bcc5e3992e0"
        },
        {
          "reference" : "urn:uuid:769a289d-a518-469a-8100-7943550e359f"
        },
        {
          "reference" : "urn:uuid:9cb3b3df-7b15-4270-af39-5f2f819e692e"
        },
        {
          "reference" : "urn:uuid:da89fd22-0d4f-4220-a625-b9ddf5eb330d"
        },
        {
          "reference" : "urn:uuid:e526f7e5-2f76-484e-acde-d6f2365f0859"
        },
        {
          "reference" : "urn:uuid:6d15d84f-2faf-4141-ac0c-fb9cf8496abe"
        },
        {
          "reference" : "urn:uuid:ecf9728f-fa50-4b46-b8f7-7768174df72a"
        },
        {
          "reference" : "urn:uuid:cf4b2e92-51e6-44de-9406-5406e66e9d45"
        }]
      },
      {
        "title" : "Allergies and Intolerances",
        "code" : {
          "coding" : [{
            "system" : "http://loinc.org",
            "code" : "48765-2",
            "display" : "Allergies and adverse reactions Document"
          }]
        },
        "text" : {
          "status" : "empty",
          "div" : "<div xmlns=\"http://www.w3.org/1999/xhtml\"><p>narrative needs to be generated</p></div>"
        },
        "entry" : [{
          "reference" : "urn:uuid:768eb9cb-00f3-4ab1-bfc2-ff835cb3b89b"
        }]
      },
      {
        "title" : "History of Procedures",
        "code" : {
          "coding" : [{
            "system" : "http://loinc.org",
            "code" : "47519-4",
            "display" : "History of Procedures Document"
          }]
        },
        "text" : {
          "status" : "empty",
          "div" : "<div xmlns=\"http://www.w3.org/1999/xhtml\"><p>narrative needs to be generated</p></div>"
        },
        "entry" : [{
          "reference" : "urn:uuid:75c46c35-8f4e-4232-b026-5672c60d076a"
        },
        {
          "reference" : "urn:uuid:8103f99c-64f0-4dd5-b92e-5c9680c91e47"
        },
        {
          "reference" : "urn:uuid:8a825f17-1599-4928-b384-0ca4a62daba8"
        }]
      },
      {
        "title" : "Medical Devices",
        "code" : {
          "coding" : [{
            "system" : "http://loinc.org",
            "code" : "46264-8",
            "display" : "History of medical device use"
          }]
        },
        "text" : {
          "status" : "empty",
          "div" : "<div xmlns=\"http://www.w3.org/1999/xhtml\"><p>narrative needs to be generated</p></div>"
        },
        "emptyReason" : {
          "coding" : [{
            "system" : "http://terminology.hl7.org/CodeSystem/list-empty-reason",
            "code" : "nilknown"
          }]
        }
      },
      {
        "title" : "Diagnostic Results",
        "code" : {
          "coding" : [{
            "system" : "http://loinc.org",
            "code" : "30954-2",
            "display" : "Relevant diagnostic tests/laboratory data Narrative"
          }]
        },
        "text" : {
          "status" : "empty",
          "div" : "<div xmlns=\"http://www.w3.org/1999/xhtml\"><p>narrative needs to be generated</p></div>"
        },
        "entry" : [{
          "reference" : "urn:uuid:725bcf71-22e6-473b-a879-49a4b63cd654"
        },
        {
          "reference" : "urn:uuid:aeff2319-2cc2-4fba-9541-7a4de3d20f91"
        },
        {
          "reference" : "urn:uuid:d16dce15-bc5a-48a5-910e-6ac039785a2a"
        },
        {
          "reference" : "urn:uuid:96314fcd-3b0c-4032-8cac-6eb59579d90a"
        },
        {
          "reference" : "urn:uuid:30c8a990-ea39-4dcb-9e1e-b9ac74afffc9"
        },
        {
          "reference" : "urn:uuid:f29ac02d-762e-436e-b40c-667ab89e15f2"
        },
        {
          "reference" : "urn:uuid:28a773ea-38c7-4c77-86c4-7764325756e7"
        },
        {
          "reference" : "urn:uuid:b675680e-9469-41b1-adc1-093904e3a1d3"
        }]
      },
      {
        "title" : "Vital Signs",
        "code" : {
          "coding" : [{
            "system" : "http://loinc.org",
            "code" : "8716-3",
            "display" : "Vital signs"
          }]
        },
        "text" : {
          "status" : "empty",
          "div" : "<div xmlns=\"http://www.w3.org/1999/xhtml\"><p>narrative needs to be generated</p></div>"
        },
        "entry" : [{
          "reference" : "urn:uuid:74c5e186-d765-4c93-a624-c9b0746e8142"
        },
        {
          "reference" : "urn:uuid:428259da-e0f7-4780-b1e3-c177515edd37"
        },
        {
          "reference" : "urn:uuid:daf9c15d-14d4-429c-b658-6842fdff67d8"
        },
        {
          "reference" : "urn:uuid:8248cc70-65a2-4d37-ae14-a3ef2abf8f32"
        },
        {
          "reference" : "urn:uuid:4d3f7ac4-fd0a-49af-a56b-303a2dbe67d1"
        },
        {
          "reference" : "urn:uuid:be35e603-6b99-4bb5-ad70-8499f6b55df1"
        }]
      },
      {
        "title" : "Past History of Illness",
        "code" : {
          "coding" : [{
            "system" : "http://loinc.org",
            "code" : "11348-0",
            "display" : "History of Past illness Narrative"
          }]
        },
        "text" : {
          "status" : "empty",
          "div" : "<div xmlns=\"http://www.w3.org/1999/xhtml\"><p>narrative needs to be generated</p></div>"
        },
        "entry" : [{
          "reference" : "urn:uuid:82301518-66ca-4b4c-821d-087adf643cc4"
        },
        {
          "reference" : "urn:uuid:ce2589a2-a5e5-4520-808f-8118e2863a95"
        }]
      },
      {
        "title" : "Social History",
        "code" : {
          "coding" : [{
            "system" : "http://loinc.org",
            "code" : "29762-2",
            "display" : "Social history Narrative"
          }]
        },
        "text" : {
          "status" : "empty",
          "div" : "<div xmlns=\"http://www.w3.org/1999/xhtml\"><p>narrative needs to be generated</p></div>"
        },
        "entry" : [{
          "reference" : "urn:uuid:d0a5bbf1-6d01-4d44-bac5-05f12c98411e"
        },
        {
          "reference" : "urn:uuid:9add5c32-1ded-43d6-b163-c3fe13f94984"
        }]
      }]
    }
  },
  {
    "fullUrl" : "urn:uuid:0fed5ebe-ca8f-4ad1-aba4-ddad45bd6cc8",
    "resource" : {
      "resourceType" : "Patient",
      "id" : "APS-2-preventive-medical-checkup-patient",
      "meta" : {
        "profile" : ["https://fhir.hl7.at/elga/aps/r4/StructureDefinition/at-aps-patient"]
      },
      "text" : {
        "status" : "generated",
        "div" : "<div xmlns=\"http://www.w3.org/1999/xhtml\"><a name=\"Patient_APS-2-preventive-medical-checkup-patient\"> </a><p class=\"res-header-id\"><b>Generated Narrative: Patient APS-2-preventive-medical-checkup-patient</b></p><a name=\"APS-2-preventive-medical-checkup-patient\"> </a><a name=\"hcAPS-2-preventive-medical-checkup-patient\"> </a><a name=\"APS-2-preventive-medical-checkup-patient-de-AT\"> </a><div style=\"display: inline-block; background-color: #d9e0e7; padding: 6px; margin: 4px; border: 1px solid #8da1b4; border-radius: 5px; line-height: 60%\"><p style=\"margin-bottom: 0px\"/><p style=\"margin-bottom: 0px\">Profile: <a href=\"StructureDefinition-at-aps-patient.html\">AT APS Patient</a></p></div><p style=\"border: 1px #661aff solid; background-color: #e6e6ff; padding: 10px;\">Arnold Test  Male, DoB: 1950-11-12 ( Social Security number: 0000121150)</p><hr/><table class=\"grid\"><tr><td style=\"background-color: #f3f5da\" title=\"Other Id (see the one above)\">Other Id:</td><td colspan=\"3\">Patient internal identifier/0002</td></tr><tr><td style=\"background-color: #f3f5da\" title=\"Ways to contact the Patient\">Contact Detail</td><td colspan=\"3\">Am Schulweg 5 Hainfeld 3100 AUT (home)</td></tr></table></div>"
      },
      "identifier" : [{
        "type" : {
          "coding" : [{
            "system" : "http://terminology.hl7.org/CodeSystem/v2-0203",
            "code" : "SS",
            "display" : "Social Security number"
          }]
        },
        "system" : "urn:oid:1.2.40.0.10.1.4.3.1",
        "value" : "0000121150",
        "assigner" : {
          "display" : "Dachverband der österreichischen Sozialversicherungsträger"
        }
      },
      {
        "type" : {
          "coding" : [{
            "system" : "http://terminology.hl7.org/CodeSystem/v2-0203",
            "code" : "PI",
            "display" : "Patient internal identifier"
          }]
        },
        "system" : "urn:oid:1.2.3.4.5",
        "value" : "0002",
        "assigner" : {
          "display" : "Ein GDA in Österreich"
        }
      }],
      "name" : [{
        "family" : "Test",
        "given" : ["Arnold"]
      }],
      "gender" : "male",
      "birthDate" : "1950-11-12",
      "address" : [{
        "use" : "home",
        "line" : ["Am Schulweg 5"],
        "city" : "Hainfeld",
        "postalCode" : "3100",
        "country" : "AUT"
      }]
    }
  },
  {
    "fullUrl" : "urn:uuid:75db30ee-7028-486c-929a-c5126837f472",
    "resource" : {
      "resourceType" : "Practitioner",
      "id" : "APS-2-preventive-medical-checkup-author",
      "meta" : {
        "profile" : ["https://fhir.hl7.at/elga/aps/r4/StructureDefinition/at-aps-practitioner"]
      },
      "text" : {
        "status" : "generated",
        "div" : "<div xmlns=\"http://www.w3.org/1999/xhtml\"><a name=\"Practitioner_APS-2-preventive-medical-checkup-author\"> </a><p class=\"res-header-id\"><b>Generated Narrative: Practitioner APS-2-preventive-medical-checkup-author</b></p><a name=\"APS-2-preventive-medical-checkup-author\"> </a><a name=\"hcAPS-2-preventive-medical-checkup-author\"> </a><a name=\"APS-2-preventive-medical-checkup-author-de-AT\"> </a><div style=\"display: inline-block; background-color: #d9e0e7; padding: 6px; margin: 4px; border: 1px solid #8da1b4; border-radius: 5px; line-height: 60%\"><p style=\"margin-bottom: 0px\"/><p style=\"margin-bottom: 0px\">Profile: <a href=\"StructureDefinition-at-aps-practitioner.html\">AT APS Practitioner</a></p></div><p><b>identifier</b>: <a href=\"http://terminology.hl7.org/6.0.2/NamingSystem-uri.html\" title=\"As defined by RFC 3986 (http://www.ietf.org/rfc/rfc3986.txt)(with many schemes defined in many RFCs). For OIDs and UUIDs, use the URN form (urn:oid:(note: lowercase) and urn:uuid:). See http://www.ietf.org/rfc/rfc3001.txt and http://www.ietf.org/rfc/rfc4122.txt \r\n\r\nThis oid is used as an identifier II.root to indicate the the extension is an absolute URI (technically, an IRI). Typically, this is used for OIDs and GUIDs. Note that when this OID is used with OIDs and GUIDs, the II.extension should start with urn:oid or urn:uuid: \r\n\r\nNote that this OID is created to aid with interconversion between CDA and FHIR - FHIR uses urn:ietf:rfc:3986 as equivalent to this OID. URIs as identifiers appear more commonly in FHIR.\r\n\r\nThis OID may also be used in CD.codeSystem.\">Uniform Resource Identifier (URI)</a>/urn:oid:1.2.40.0.10.99.1.2.3.4</p><p><b>name</b>: Hannes Hausarzt </p></div>"
      },
      "identifier" : [{
        "system" : "urn:ietf:rfc:3986",
        "value" : "urn:oid:1.2.40.0.10.99.1.2.3.4",
        "assigner" : {
          "display" : "Bundesministerium für Gesundheit"
        }
      }],
      "name" : [{
        "family" : "Hausarzt",
        "given" : ["Hannes"],
        "prefix" : ["Dr"]
      }]
    }
  },
  {
    "fullUrl" : "urn:uuid:f6266e6a-f63d-4673-b2de-3dff11e619d6",
    "resource" : {
      "resourceType" : "Organization",
      "id" : "APS-2-organization",
      "meta" : {
        "profile" : ["https://fhir.hl7.at/elga/aps/r4/StructureDefinition/at-aps-organization"]
      },
      "text" : {
        "status" : "generated",
        "div" : "<div xmlns=\"http://www.w3.org/1999/xhtml\"><a name=\"Organization_APS-2-organization\"> </a><p class=\"res-header-id\"><b>Generated Narrative: Organization APS-2-organization</b></p><a name=\"APS-2-organization\"> </a><a name=\"hcAPS-2-organization\"> </a><a name=\"APS-2-organization-de-AT\"> </a><div style=\"display: inline-block; background-color: #d9e0e7; padding: 6px; margin: 4px; border: 1px solid #8da1b4; border-radius: 5px; line-height: 60%\"><p style=\"margin-bottom: 0px\"/><p style=\"margin-bottom: 0px\">Profile: <a href=\"StructureDefinition-at-aps-organization.html\">AT APS Organization</a></p></div><p><b>name</b>: MusterOrganization</p></div>"
      },
      "name" : "MusterOrganization"
    }
  },
  {
    "fullUrl" : "urn:uuid:72e85b9d-004d-4104-b166-86d129948bae",
    "resource" : {
      "resourceType" : "Condition",
      "id" : "APS-2-preventive-medical-checkup-problem-1",
      "meta" : {
        "profile" : ["https://fhir.hl7.at/elga/aps/r4/StructureDefinition/at-aps-condition"]
      },
      "text" : {
        "status" : "generated",
        "div" : "<div xmlns=\"http://www.w3.org/1999/xhtml\"><a name=\"Condition_APS-2-preventive-medical-checkup-problem-1\"> </a><p class=\"res-header-id\"><b>Generated Narrative: Condition APS-2-preventive-medical-checkup-problem-1</b></p><a name=\"APS-2-preventive-medical-checkup-problem-1\"> </a><a name=\"hcAPS-2-preventive-medical-checkup-problem-1\"> </a><a name=\"APS-2-preventive-medical-checkup-problem-1-de-AT\"> </a><div style=\"display: inline-block; background-color: #d9e0e7; padding: 6px; margin: 4px; border: 1px solid #8da1b4; border-radius: 5px; line-height: 60%\"><p style=\"margin-bottom: 0px\"/><p style=\"margin-bottom: 0px\">Profile: <a href=\"StructureDefinition-at-aps-condition.html\">AT APS Condition</a></p></div><p><b>clinicalStatus</b>: <span title=\"Codes:{http://terminology.hl7.org/CodeSystem/condition-clinical active}\">Active</span></p><p><b>verificationStatus</b>: <span title=\"Codes:{http://terminology.hl7.org/CodeSystem/condition-ver-status confirmed}\">Confirmed</span></p><p><b>category</b>: <span title=\"Codes:{http://terminology.hl7.org/CodeSystem/condition-category problem-list-item}\">Problem List Item</span></p><p><b>code</b>: <span title=\"Codes:{http://snomed.info/sct 700379002}\">Chronic kidney disease stage 3B</span></p><p><b>subject</b>: <a href=\"Bundle-APS-1-no-problems-medication-allergies.html#urn-uuid-0fed5ebe-ca8f-4ad1-aba4-ddad45bd6cc8\">Bundle: identifier = http://system-to-be-defined.com#63fef90a-be11-4ddf-aece-d77da15c4f20; type = document; timestamp = 2024-02-08 14:01:30+0000</a></p></div>"
      },
      "clinicalStatus" : {
        "coding" : [{
          "system" : "http://terminology.hl7.org/CodeSystem/condition-clinical",
          "code" : "active",
          "display" : "Active"
        }]
      },
      "verificationStatus" : {
        "coding" : [{
          "system" : "http://terminology.hl7.org/CodeSystem/condition-ver-status",
          "code" : "confirmed",
          "display" : "Confirmed"
        }]
      },
      "category" : [{
        "coding" : [{
          "system" : "http://terminology.hl7.org/CodeSystem/condition-category",
          "code" : "problem-list-item",
          "display" : "Problem List Item"
        }]
      }],
      "code" : {
        "coding" : [{
          "system" : "http://snomed.info/sct",
          "code" : "700379002",
          "display" : "Chronic kidney disease stage 3B"
        }]
      },
      "subject" : {
        "reference" : "urn:uuid:0fed5ebe-ca8f-4ad1-aba4-ddad45bd6cc8"
      }
    }
  },
  {
    "fullUrl" : "urn:uuid:82fa32f6-39d6-4fc9-9624-90a48fd3d3a5",
    "resource" : {
      "resourceType" : "Condition",
      "id" : "APS-2-preventive-medical-checkup-problem-2",
      "meta" : {
        "profile" : ["https://fhir.hl7.at/elga/aps/r4/StructureDefinition/at-aps-condition"]
      },
      "text" : {
        "status" : "generated",
        "div" : "<div xmlns=\"http://www.w3.org/1999/xhtml\"><a name=\"Condition_APS-2-preventive-medical-checkup-problem-2\"> </a><p class=\"res-header-id\"><b>Generated Narrative: Condition APS-2-preventive-medical-checkup-problem-2</b></p><a name=\"APS-2-preventive-medical-checkup-problem-2\"> </a><a name=\"hcAPS-2-preventive-medical-checkup-problem-2\"> </a><a name=\"APS-2-preventive-medical-checkup-problem-2-de-AT\"> </a><div style=\"display: inline-block; background-color: #d9e0e7; padding: 6px; margin: 4px; border: 1px solid #8da1b4; border-radius: 5px; line-height: 60%\"><p style=\"margin-bottom: 0px\"/><p style=\"margin-bottom: 0px\">Profile: <a href=\"StructureDefinition-at-aps-condition.html\">AT APS Condition</a></p></div><p><b>clinicalStatus</b>: <span title=\"Codes:{http://terminology.hl7.org/CodeSystem/condition-clinical active}\">Active</span></p><p><b>verificationStatus</b>: <span title=\"Codes:{http://terminology.hl7.org/CodeSystem/condition-ver-status confirmed}\">Confirmed</span></p><p><b>category</b>: <span title=\"Codes:{http://terminology.hl7.org/CodeSystem/condition-category problem-list-item}\">Problem List Item</span></p><p><b>code</b>: <span title=\"Codes:{http://snomed.info/sct 711150003}\">Long-term current use of anticoagulant</span></p><p><b>subject</b>: <a href=\"Bundle-APS-1-no-problems-medication-allergies.html#urn-uuid-0fed5ebe-ca8f-4ad1-aba4-ddad45bd6cc8\">Bundle: identifier = http://system-to-be-defined.com#63fef90a-be11-4ddf-aece-d77da15c4f20; type = document; timestamp = 2024-02-08 14:01:30+0000</a></p></div>"
      },
      "clinicalStatus" : {
        "coding" : [{
          "system" : "http://terminology.hl7.org/CodeSystem/condition-clinical",
          "code" : "active",
          "display" : "Active"
        }]
      },
      "verificationStatus" : {
        "coding" : [{
          "system" : "http://terminology.hl7.org/CodeSystem/condition-ver-status",
          "code" : "confirmed",
          "display" : "Confirmed"
        }]
      },
      "category" : [{
        "coding" : [{
          "system" : "http://terminology.hl7.org/CodeSystem/condition-category",
          "code" : "problem-list-item",
          "display" : "Problem List Item"
        }]
      }],
      "code" : {
        "coding" : [{
          "system" : "http://snomed.info/sct",
          "code" : "711150003",
          "display" : "Long-term current use of anticoagulant"
        }]
      },
      "subject" : {
        "reference" : "urn:uuid:0fed5ebe-ca8f-4ad1-aba4-ddad45bd6cc8"
      }
    }
  },
  {
    "fullUrl" : "urn:uuid:61db6213-22ab-405a-825a-0ae6905fad1e",
    "resource" : {
      "resourceType" : "Condition",
      "id" : "APS-2-preventive-medical-checkup-problem-3",
      "meta" : {
        "profile" : ["https://fhir.hl7.at/elga/aps/r4/StructureDefinition/at-aps-condition"]
      },
      "text" : {
        "status" : "generated",
        "div" : "<div xmlns=\"http://www.w3.org/1999/xhtml\"><a name=\"Condition_APS-2-preventive-medical-checkup-problem-3\"> </a><p class=\"res-header-id\"><b>Generated Narrative: Condition APS-2-preventive-medical-checkup-problem-3</b></p><a name=\"APS-2-preventive-medical-checkup-problem-3\"> </a><a name=\"hcAPS-2-preventive-medical-checkup-problem-3\"> </a><a name=\"APS-2-preventive-medical-checkup-problem-3-de-AT\"> </a><div style=\"display: inline-block; background-color: #d9e0e7; padding: 6px; margin: 4px; border: 1px solid #8da1b4; border-radius: 5px; line-height: 60%\"><p style=\"margin-bottom: 0px\"/><p style=\"margin-bottom: 0px\">Profile: <a href=\"StructureDefinition-at-aps-condition.html\">AT APS Condition</a></p></div><p><b>clinicalStatus</b>: <span title=\"Codes:{http://terminology.hl7.org/CodeSystem/condition-clinical active}\">Active</span></p><p><b>verificationStatus</b>: <span title=\"Codes:{http://terminology.hl7.org/CodeSystem/condition-ver-status confirmed}\">Confirmed</span></p><p><b>category</b>: <span title=\"Codes:{http://terminology.hl7.org/CodeSystem/condition-category problem-list-item}\">Problem List Item</span></p><p><b>code</b>: <span title=\"Codes:{http://snomed.info/sct 314194001}\">Diabetic on insulin and oral treatment</span></p><p><b>subject</b>: <a href=\"Bundle-APS-1-no-problems-medication-allergies.html#urn-uuid-0fed5ebe-ca8f-4ad1-aba4-ddad45bd6cc8\">Bundle: identifier = http://system-to-be-defined.com#63fef90a-be11-4ddf-aece-d77da15c4f20; type = document; timestamp = 2024-02-08 14:01:30+0000</a></p></div>"
      },
      "clinicalStatus" : {
        "coding" : [{
          "system" : "http://terminology.hl7.org/CodeSystem/condition-clinical",
          "code" : "active",
          "display" : "Active"
        }]
      },
      "verificationStatus" : {
        "coding" : [{
          "system" : "http://terminology.hl7.org/CodeSystem/condition-ver-status",
          "code" : "confirmed",
          "display" : "Confirmed"
        }]
      },
      "category" : [{
        "coding" : [{
          "system" : "http://terminology.hl7.org/CodeSystem/condition-category",
          "code" : "problem-list-item",
          "display" : "Problem List Item"
        }]
      }],
      "code" : {
        "coding" : [{
          "system" : "http://snomed.info/sct",
          "code" : "314194001",
          "display" : "Diabetic on insulin and oral treatment"
        }]
      },
      "subject" : {
        "reference" : "urn:uuid:0fed5ebe-ca8f-4ad1-aba4-ddad45bd6cc8"
      }
    }
  },
  {
    "fullUrl" : "urn:uuid:194cac84-0ee2-40b4-8dda-1866318d234c",
    "resource" : {
      "resourceType" : "Condition",
      "id" : "APS-2-preventive-medical-checkup-problem-4",
      "meta" : {
        "profile" : ["https://fhir.hl7.at/elga/aps/r4/StructureDefinition/at-aps-condition"]
      },
      "text" : {
        "status" : "generated",
        "div" : "<div xmlns=\"http://www.w3.org/1999/xhtml\"><a name=\"Condition_APS-2-preventive-medical-checkup-problem-4\"> </a><p class=\"res-header-id\"><b>Generated Narrative: Condition APS-2-preventive-medical-checkup-problem-4</b></p><a name=\"APS-2-preventive-medical-checkup-problem-4\"> </a><a name=\"hcAPS-2-preventive-medical-checkup-problem-4\"> </a><a name=\"APS-2-preventive-medical-checkup-problem-4-de-AT\"> </a><div style=\"display: inline-block; background-color: #d9e0e7; padding: 6px; margin: 4px; border: 1px solid #8da1b4; border-radius: 5px; line-height: 60%\"><p style=\"margin-bottom: 0px\"/><p style=\"margin-bottom: 0px\">Profile: <a href=\"StructureDefinition-at-aps-condition.html\">AT APS Condition</a></p></div><p><b>clinicalStatus</b>: <span title=\"Codes:{http://terminology.hl7.org/CodeSystem/condition-clinical active}\">Active</span></p><p><b>verificationStatus</b>: <span title=\"Codes:{http://terminology.hl7.org/CodeSystem/condition-ver-status confirmed}\">Confirmed</span></p><p><b>category</b>: <span title=\"Codes:{http://terminology.hl7.org/CodeSystem/condition-category problem-list-item}\">Problem List Item</span></p><p><b>code</b>: <span title=\"Codes:{http://snomed.info/sct 710159007}\">Long-term current use of immunosuppressive drug</span></p><p><b>subject</b>: <a href=\"Bundle-APS-1-no-problems-medication-allergies.html#urn-uuid-0fed5ebe-ca8f-4ad1-aba4-ddad45bd6cc8\">Bundle: identifier = http://system-to-be-defined.com#63fef90a-be11-4ddf-aece-d77da15c4f20; type = document; timestamp = 2024-02-08 14:01:30+0000</a></p></div>"
      },
      "clinicalStatus" : {
        "coding" : [{
          "system" : "http://terminology.hl7.org/CodeSystem/condition-clinical",
          "code" : "active",
          "display" : "Active"
        }]
      },
      "verificationStatus" : {
        "coding" : [{
          "system" : "http://terminology.hl7.org/CodeSystem/condition-ver-status",
          "code" : "confirmed",
          "display" : "Confirmed"
        }]
      },
      "category" : [{
        "coding" : [{
          "system" : "http://terminology.hl7.org/CodeSystem/condition-category",
          "code" : "problem-list-item",
          "display" : "Problem List Item"
        }]
      }],
      "code" : {
        "coding" : [{
          "system" : "http://snomed.info/sct",
          "code" : "710159007",
          "display" : "Long-term current use of immunosuppressive drug"
        }]
      },
      "subject" : {
        "reference" : "urn:uuid:0fed5ebe-ca8f-4ad1-aba4-ddad45bd6cc8"
      }
    }
  },
  {
    "fullUrl" : "urn:uuid:9d1c0b74-20c1-4603-a95a-71e6a1dc8fde",
    "resource" : {
      "resourceType" : "Condition",
      "id" : "APS-2-preventive-medical-checkup-problem-5",
      "meta" : {
        "profile" : ["https://fhir.hl7.at/elga/aps/r4/StructureDefinition/at-aps-condition"]
      },
      "text" : {
        "status" : "generated",
        "div" : "<div xmlns=\"http://www.w3.org/1999/xhtml\"><a name=\"Condition_APS-2-preventive-medical-checkup-problem-5\"> </a><p class=\"res-header-id\"><b>Generated Narrative: Condition APS-2-preventive-medical-checkup-problem-5</b></p><a name=\"APS-2-preventive-medical-checkup-problem-5\"> </a><a name=\"hcAPS-2-preventive-medical-checkup-problem-5\"> </a><a name=\"APS-2-preventive-medical-checkup-problem-5-de-AT\"> </a><div style=\"display: inline-block; background-color: #d9e0e7; padding: 6px; margin: 4px; border: 1px solid #8da1b4; border-radius: 5px; line-height: 60%\"><p style=\"margin-bottom: 0px\"/><p style=\"margin-bottom: 0px\">Profile: <a href=\"StructureDefinition-at-aps-condition.html\">AT APS Condition</a></p></div><p><b>clinicalStatus</b>: <span title=\"Codes:{http://terminology.hl7.org/CodeSystem/condition-clinical active}\">Active</span></p><p><b>verificationStatus</b>: <span title=\"Codes:{http://terminology.hl7.org/CodeSystem/condition-ver-status confirmed}\">Confirmed</span></p><p><b>category</b>: <span title=\"Codes:{http://terminology.hl7.org/CodeSystem/condition-category problem-list-item}\">Problem List Item</span></p><p><b>code</b>: <span title=\"Codes:{http://snomed.info/sct 38341003}\">Hypertensive disorder</span></p><p><b>subject</b>: <a href=\"Bundle-APS-1-no-problems-medication-allergies.html#urn-uuid-0fed5ebe-ca8f-4ad1-aba4-ddad45bd6cc8\">Bundle: identifier = http://system-to-be-defined.com#63fef90a-be11-4ddf-aece-d77da15c4f20; type = document; timestamp = 2024-02-08 14:01:30+0000</a></p></div>"
      },
      "clinicalStatus" : {
        "coding" : [{
          "system" : "http://terminology.hl7.org/CodeSystem/condition-clinical",
          "code" : "active",
          "display" : "Active"
        }]
      },
      "verificationStatus" : {
        "coding" : [{
          "system" : "http://terminology.hl7.org/CodeSystem/condition-ver-status",
          "code" : "confirmed",
          "display" : "Confirmed"
        }]
      },
      "category" : [{
        "coding" : [{
          "system" : "http://terminology.hl7.org/CodeSystem/condition-category",
          "code" : "problem-list-item",
          "display" : "Problem List Item"
        }]
      }],
      "code" : {
        "coding" : [{
          "system" : "http://snomed.info/sct",
          "code" : "38341003",
          "display" : "Hypertensive disorder"
        }]
      },
      "subject" : {
        "reference" : "urn:uuid:0fed5ebe-ca8f-4ad1-aba4-ddad45bd6cc8"
      }
    }
  },
  {
    "fullUrl" : "urn:uuid:b62c11b1-c478-4d04-ae6f-5f73543f2bb1",
    "resource" : {
      "resourceType" : "Condition",
      "id" : "APS-2-preventive-medical-checkup-problem-6",
      "meta" : {
        "profile" : ["https://fhir.hl7.at/elga/aps/r4/StructureDefinition/at-aps-condition"]
      },
      "text" : {
        "status" : "generated",
        "div" : "<div xmlns=\"http://www.w3.org/1999/xhtml\"><a name=\"Condition_APS-2-preventive-medical-checkup-problem-6\"> </a><p class=\"res-header-id\"><b>Generated Narrative: Condition APS-2-preventive-medical-checkup-problem-6</b></p><a name=\"APS-2-preventive-medical-checkup-problem-6\"> </a><a name=\"hcAPS-2-preventive-medical-checkup-problem-6\"> </a><a name=\"APS-2-preventive-medical-checkup-problem-6-de-AT\"> </a><div style=\"display: inline-block; background-color: #d9e0e7; padding: 6px; margin: 4px; border: 1px solid #8da1b4; border-radius: 5px; line-height: 60%\"><p style=\"margin-bottom: 0px\"/><p style=\"margin-bottom: 0px\">Profile: <a href=\"StructureDefinition-at-aps-condition.html\">AT APS Condition</a></p></div><p><b>clinicalStatus</b>: <span title=\"Codes:{http://terminology.hl7.org/CodeSystem/condition-clinical active}\">Active</span></p><p><b>verificationStatus</b>: <span title=\"Codes:{http://terminology.hl7.org/CodeSystem/condition-ver-status confirmed}\">Confirmed</span></p><p><b>category</b>: <span title=\"Codes:{http://terminology.hl7.org/CodeSystem/condition-category problem-list-item}\">Problem List Item</span></p><p><b>code</b>: <span title=\"Codes:{http://snomed.info/sct 408570008}\">Carotid artery doppler normal</span></p><p><b>subject</b>: <a href=\"Bundle-APS-1-no-problems-medication-allergies.html#urn-uuid-0fed5ebe-ca8f-4ad1-aba4-ddad45bd6cc8\">Bundle: identifier = http://system-to-be-defined.com#63fef90a-be11-4ddf-aece-d77da15c4f20; type = document; timestamp = 2024-02-08 14:01:30+0000</a></p></div>"
      },
      "clinicalStatus" : {
        "coding" : [{
          "system" : "http://terminology.hl7.org/CodeSystem/condition-clinical",
          "code" : "active",
          "display" : "Active"
        }]
      },
      "verificationStatus" : {
        "coding" : [{
          "system" : "http://terminology.hl7.org/CodeSystem/condition-ver-status",
          "code" : "confirmed",
          "display" : "Confirmed"
        }]
      },
      "category" : [{
        "coding" : [{
          "system" : "http://terminology.hl7.org/CodeSystem/condition-category",
          "code" : "problem-list-item",
          "display" : "Problem List Item"
        }]
      }],
      "code" : {
        "coding" : [{
          "system" : "http://snomed.info/sct",
          "code" : "408570008",
          "display" : "Carotid artery doppler normal"
        }]
      },
      "subject" : {
        "reference" : "urn:uuid:0fed5ebe-ca8f-4ad1-aba4-ddad45bd6cc8"
      }
    }
  },
  {
    "fullUrl" : "urn:uuid:8d3a18fb-3610-4bfb-9aa4-1169cc6dd2dd",
    "resource" : {
      "resourceType" : "Condition",
      "id" : "APS-2-preventive-medical-checkup-problem-7",
      "meta" : {
        "profile" : ["https://fhir.hl7.at/elga/aps/r4/StructureDefinition/at-aps-condition"]
      },
      "text" : {
        "status" : "generated",
        "div" : "<div xmlns=\"http://www.w3.org/1999/xhtml\"><a name=\"Condition_APS-2-preventive-medical-checkup-problem-7\"> </a><p class=\"res-header-id\"><b>Generated Narrative: Condition APS-2-preventive-medical-checkup-problem-7</b></p><a name=\"APS-2-preventive-medical-checkup-problem-7\"> </a><a name=\"hcAPS-2-preventive-medical-checkup-problem-7\"> </a><a name=\"APS-2-preventive-medical-checkup-problem-7-de-AT\"> </a><div style=\"display: inline-block; background-color: #d9e0e7; padding: 6px; margin: 4px; border: 1px solid #8da1b4; border-radius: 5px; line-height: 60%\"><p style=\"margin-bottom: 0px\"/><p style=\"margin-bottom: 0px\">Profile: <a href=\"StructureDefinition-at-aps-condition.html\">AT APS Condition</a></p></div><p><b>clinicalStatus</b>: <span title=\"Codes:{http://terminology.hl7.org/CodeSystem/condition-clinical active}\">Active</span></p><p><b>verificationStatus</b>: <span title=\"Codes:{http://terminology.hl7.org/CodeSystem/condition-ver-status confirmed}\">Confirmed</span></p><p><b>category</b>: <span title=\"Codes:{http://terminology.hl7.org/CodeSystem/condition-category problem-list-item}\">Problem List Item</span></p><p><b>code</b>: <span title=\"Codes:{http://snomed.info/sct 168938005}\">Coronary arteriography normal</span></p><p><b>subject</b>: <a href=\"Bundle-APS-1-no-problems-medication-allergies.html#urn-uuid-0fed5ebe-ca8f-4ad1-aba4-ddad45bd6cc8\">Bundle: identifier = http://system-to-be-defined.com#63fef90a-be11-4ddf-aece-d77da15c4f20; type = document; timestamp = 2024-02-08 14:01:30+0000</a></p></div>"
      },
      "clinicalStatus" : {
        "coding" : [{
          "system" : "http://terminology.hl7.org/CodeSystem/condition-clinical",
          "code" : "active",
          "display" : "Active"
        }]
      },
      "verificationStatus" : {
        "coding" : [{
          "system" : "http://terminology.hl7.org/CodeSystem/condition-ver-status",
          "code" : "confirmed",
          "display" : "Confirmed"
        }]
      },
      "category" : [{
        "coding" : [{
          "system" : "http://terminology.hl7.org/CodeSystem/condition-category",
          "code" : "problem-list-item",
          "display" : "Problem List Item"
        }]
      }],
      "code" : {
        "coding" : [{
          "system" : "http://snomed.info/sct",
          "code" : "168938005",
          "display" : "Coronary arteriography normal"
        }]
      },
      "subject" : {
        "reference" : "urn:uuid:0fed5ebe-ca8f-4ad1-aba4-ddad45bd6cc8"
      }
    }
  },
  {
    "fullUrl" : "urn:uuid:c5d400b1-b58b-41ed-9776-cfcdaf48f2e6",
    "resource" : {
      "resourceType" : "Condition",
      "id" : "APS-2-preventive-medical-checkup-problem-8",
      "meta" : {
        "profile" : ["https://fhir.hl7.at/elga/aps/r4/StructureDefinition/at-aps-condition"]
      },
      "text" : {
        "status" : "generated",
        "div" : "<div xmlns=\"http://www.w3.org/1999/xhtml\"><a name=\"Condition_APS-2-preventive-medical-checkup-problem-8\"> </a><p class=\"res-header-id\"><b>Generated Narrative: Condition APS-2-preventive-medical-checkup-problem-8</b></p><a name=\"APS-2-preventive-medical-checkup-problem-8\"> </a><a name=\"hcAPS-2-preventive-medical-checkup-problem-8\"> </a><a name=\"APS-2-preventive-medical-checkup-problem-8-de-AT\"> </a><div style=\"display: inline-block; background-color: #d9e0e7; padding: 6px; margin: 4px; border: 1px solid #8da1b4; border-radius: 5px; line-height: 60%\"><p style=\"margin-bottom: 0px\"/><p style=\"margin-bottom: 0px\">Profile: <a href=\"StructureDefinition-at-aps-condition.html\">AT APS Condition</a></p></div><p><b>clinicalStatus</b>: <span title=\"Codes:{http://terminology.hl7.org/CodeSystem/condition-clinical active}\">Active</span></p><p><b>verificationStatus</b>: <span title=\"Codes:{http://terminology.hl7.org/CodeSystem/condition-ver-status confirmed}\">Confirmed</span></p><p><b>category</b>: <span title=\"Codes:{http://terminology.hl7.org/CodeSystem/condition-category problem-list-item}\">Problem List Item</span></p><p><b>code</b>: <span title=\"Codes:{http://snomed.info/sct 328941000119101}\">Long-term current use of bisphosphonates</span></p><p><b>subject</b>: <a href=\"Bundle-APS-1-no-problems-medication-allergies.html#urn-uuid-0fed5ebe-ca8f-4ad1-aba4-ddad45bd6cc8\">Bundle: identifier = http://system-to-be-defined.com#63fef90a-be11-4ddf-aece-d77da15c4f20; type = document; timestamp = 2024-02-08 14:01:30+0000</a></p><p><b>onset</b>: 2020-06 --&gt; 2025-03</p></div>"
      },
      "clinicalStatus" : {
        "coding" : [{
          "system" : "http://terminology.hl7.org/CodeSystem/condition-clinical",
          "code" : "active",
          "display" : "Active"
        }]
      },
      "verificationStatus" : {
        "coding" : [{
          "system" : "http://terminology.hl7.org/CodeSystem/condition-ver-status",
          "code" : "confirmed",
          "display" : "Confirmed"
        }]
      },
      "category" : [{
        "coding" : [{
          "system" : "http://terminology.hl7.org/CodeSystem/condition-category",
          "code" : "problem-list-item",
          "display" : "Problem List Item"
        }]
      }],
      "code" : {
        "coding" : [{
          "system" : "http://snomed.info/sct",
          "code" : "328941000119101",
          "display" : "Long-term current use of bisphosphonates"
        }]
      },
      "subject" : {
        "reference" : "urn:uuid:0fed5ebe-ca8f-4ad1-aba4-ddad45bd6cc8"
      },
      "onsetPeriod" : {
        "start" : "2020-06",
        "end" : "2025-03"
      }
    }
  },
  {
    "fullUrl" : "urn:uuid:32d90aaa-6577-4c5d-9771-d8f606ebf0b9",
    "resource" : {
      "resourceType" : "Condition",
      "id" : "APS-2-preventive-medical-checkup-problem-9",
      "meta" : {
        "profile" : ["https://fhir.hl7.at/elga/aps/r4/StructureDefinition/at-aps-condition"]
      },
      "text" : {
        "status" : "generated",
        "div" : "<div xmlns=\"http://www.w3.org/1999/xhtml\"><a name=\"Condition_APS-2-preventive-medical-checkup-problem-9\"> </a><p class=\"res-header-id\"><b>Generated Narrative: Condition APS-2-preventive-medical-checkup-problem-9</b></p><a name=\"APS-2-preventive-medical-checkup-problem-9\"> </a><a name=\"hcAPS-2-preventive-medical-checkup-problem-9\"> </a><a name=\"APS-2-preventive-medical-checkup-problem-9-de-AT\"> </a><div style=\"display: inline-block; background-color: #d9e0e7; padding: 6px; margin: 4px; border: 1px solid #8da1b4; border-radius: 5px; line-height: 60%\"><p style=\"margin-bottom: 0px\"/><p style=\"margin-bottom: 0px\">Profile: <a href=\"StructureDefinition-at-aps-condition.html\">AT APS Condition</a></p></div><p><b>clinicalStatus</b>: <span title=\"Codes:{http://terminology.hl7.org/CodeSystem/condition-clinical active}\">Active</span></p><p><b>verificationStatus</b>: <span title=\"Codes:{http://terminology.hl7.org/CodeSystem/condition-ver-status confirmed}\">Confirmed</span></p><p><b>category</b>: <span title=\"Codes:{http://terminology.hl7.org/CodeSystem/condition-category problem-list-item}\">Problem List Item</span></p><p><b>code</b>: <span title=\"Codes:{http://snomed.info/sct 440028005}\">Permanent atrial fibrillation</span></p><p><b>subject</b>: <a href=\"Bundle-APS-1-no-problems-medication-allergies.html#urn-uuid-0fed5ebe-ca8f-4ad1-aba4-ddad45bd6cc8\">Bundle: identifier = http://system-to-be-defined.com#63fef90a-be11-4ddf-aece-d77da15c4f20; type = document; timestamp = 2024-02-08 14:01:30+0000</a></p></div>"
      },
      "clinicalStatus" : {
        "coding" : [{
          "system" : "http://terminology.hl7.org/CodeSystem/condition-clinical",
          "code" : "active",
          "display" : "Active"
        }]
      },
      "verificationStatus" : {
        "coding" : [{
          "system" : "http://terminology.hl7.org/CodeSystem/condition-ver-status",
          "code" : "confirmed",
          "display" : "Confirmed"
        }]
      },
      "category" : [{
        "coding" : [{
          "system" : "http://terminology.hl7.org/CodeSystem/condition-category",
          "code" : "problem-list-item",
          "display" : "Problem List Item"
        }]
      }],
      "code" : {
        "coding" : [{
          "system" : "http://snomed.info/sct",
          "code" : "440028005",
          "display" : "Permanent atrial fibrillation"
        }]
      },
      "subject" : {
        "reference" : "urn:uuid:0fed5ebe-ca8f-4ad1-aba4-ddad45bd6cc8"
      }
    }
  },
  {
    "fullUrl" : "urn:uuid:2040058f-9537-4b26-9367-5ca5ac0ddb58",
    "resource" : {
      "resourceType" : "Condition",
      "id" : "APS-2-preventive-medical-checkup-problem-10",
      "meta" : {
        "profile" : ["https://fhir.hl7.at/elga/aps/r4/StructureDefinition/at-aps-condition"]
      },
      "text" : {
        "status" : "generated",
        "div" : "<div xmlns=\"http://www.w3.org/1999/xhtml\"><a name=\"Condition_APS-2-preventive-medical-checkup-problem-10\"> </a><p class=\"res-header-id\"><b>Generated Narrative: Condition APS-2-preventive-medical-checkup-problem-10</b></p><a name=\"APS-2-preventive-medical-checkup-problem-10\"> </a><a name=\"hcAPS-2-preventive-medical-checkup-problem-10\"> </a><a name=\"APS-2-preventive-medical-checkup-problem-10-de-AT\"> </a><div style=\"display: inline-block; background-color: #d9e0e7; padding: 6px; margin: 4px; border: 1px solid #8da1b4; border-radius: 5px; line-height: 60%\"><p style=\"margin-bottom: 0px\"/><p style=\"margin-bottom: 0px\">Profile: <a href=\"StructureDefinition-at-aps-condition.html\">AT APS Condition</a></p></div><p><b>clinicalStatus</b>: <span title=\"Codes:{http://terminology.hl7.org/CodeSystem/condition-clinical active}\">Active</span></p><p><b>verificationStatus</b>: <span title=\"Codes:{http://terminology.hl7.org/CodeSystem/condition-ver-status confirmed}\">Confirmed</span></p><p><b>category</b>: <span title=\"Codes:{http://terminology.hl7.org/CodeSystem/condition-category problem-list-item}\">Problem List Item</span></p><p><b>code</b>: <span title=\"Codes:{http://snomed.info/sct 735623008}\">Albuminuria grade A2</span></p><p><b>subject</b>: <a href=\"Bundle-APS-1-no-problems-medication-allergies.html#urn-uuid-0fed5ebe-ca8f-4ad1-aba4-ddad45bd6cc8\">Bundle: identifier = http://system-to-be-defined.com#63fef90a-be11-4ddf-aece-d77da15c4f20; type = document; timestamp = 2024-02-08 14:01:30+0000</a></p></div>"
      },
      "clinicalStatus" : {
        "coding" : [{
          "system" : "http://terminology.hl7.org/CodeSystem/condition-clinical",
          "code" : "active",
          "display" : "Active"
        }]
      },
      "verificationStatus" : {
        "coding" : [{
          "system" : "http://terminology.hl7.org/CodeSystem/condition-ver-status",
          "code" : "confirmed",
          "display" : "Confirmed"
        }]
      },
      "category" : [{
        "coding" : [{
          "system" : "http://terminology.hl7.org/CodeSystem/condition-category",
          "code" : "problem-list-item",
          "display" : "Problem List Item"
        }]
      }],
      "code" : {
        "coding" : [{
          "system" : "http://snomed.info/sct",
          "code" : "735623008",
          "display" : "Albuminuria grade A2"
        }]
      },
      "subject" : {
        "reference" : "urn:uuid:0fed5ebe-ca8f-4ad1-aba4-ddad45bd6cc8"
      }
    }
  },
  {
    "fullUrl" : "urn:uuid:b7b2a10d-7295-4fd1-ad21-81bca78dc45a",
    "resource" : {
      "resourceType" : "Condition",
      "id" : "APS-2-preventive-medical-checkup-problem-11",
      "meta" : {
        "profile" : ["https://fhir.hl7.at/elga/aps/r4/StructureDefinition/at-aps-condition"]
      },
      "text" : {
        "status" : "generated",
        "div" : "<div xmlns=\"http://www.w3.org/1999/xhtml\"><a name=\"Condition_APS-2-preventive-medical-checkup-problem-11\"> </a><p class=\"res-header-id\"><b>Generated Narrative: Condition APS-2-preventive-medical-checkup-problem-11</b></p><a name=\"APS-2-preventive-medical-checkup-problem-11\"> </a><a name=\"hcAPS-2-preventive-medical-checkup-problem-11\"> </a><a name=\"APS-2-preventive-medical-checkup-problem-11-de-AT\"> </a><div style=\"display: inline-block; background-color: #d9e0e7; padding: 6px; margin: 4px; border: 1px solid #8da1b4; border-radius: 5px; line-height: 60%\"><p style=\"margin-bottom: 0px\"/><p style=\"margin-bottom: 0px\">Profile: <a href=\"StructureDefinition-at-aps-condition.html\">AT APS Condition</a></p></div><p><b>clinicalStatus</b>: <span title=\"Codes:{http://terminology.hl7.org/CodeSystem/condition-clinical active}\">Active</span></p><p><b>verificationStatus</b>: <span title=\"Codes:{http://terminology.hl7.org/CodeSystem/condition-ver-status confirmed}\">Confirmed</span></p><p><b>category</b>: <span title=\"Codes:{http://terminology.hl7.org/CodeSystem/condition-category problem-list-item}\">Problem List Item</span></p><p><b>code</b>: <span title=\"Codes:{http://snomed.info/sct 239792003}\">Seronegative rheumatoid arthritis</span></p><p><b>subject</b>: <a href=\"Bundle-APS-1-no-problems-medication-allergies.html#urn-uuid-0fed5ebe-ca8f-4ad1-aba4-ddad45bd6cc8\">Bundle: identifier = http://system-to-be-defined.com#63fef90a-be11-4ddf-aece-d77da15c4f20; type = document; timestamp = 2024-02-08 14:01:30+0000</a></p></div>"
      },
      "clinicalStatus" : {
        "coding" : [{
          "system" : "http://terminology.hl7.org/CodeSystem/condition-clinical",
          "code" : "active",
          "display" : "Active"
        }]
      },
      "verificationStatus" : {
        "coding" : [{
          "system" : "http://terminology.hl7.org/CodeSystem/condition-ver-status",
          "code" : "confirmed",
          "display" : "Confirmed"
        }]
      },
      "category" : [{
        "coding" : [{
          "system" : "http://terminology.hl7.org/CodeSystem/condition-category",
          "code" : "problem-list-item",
          "display" : "Problem List Item"
        }]
      }],
      "code" : {
        "coding" : [{
          "system" : "http://snomed.info/sct",
          "code" : "239792003",
          "display" : "Seronegative rheumatoid arthritis"
        }]
      },
      "subject" : {
        "reference" : "urn:uuid:0fed5ebe-ca8f-4ad1-aba4-ddad45bd6cc8"
      }
    }
  },
  {
    "fullUrl" : "urn:uuid:ebfb60a8-a753-459d-a796-a191a4dbd91d",
    "resource" : {
      "resourceType" : "Condition",
      "id" : "APS-2-preventive-medical-checkup-problem-12",
      "meta" : {
        "profile" : ["https://fhir.hl7.at/elga/aps/r4/StructureDefinition/at-aps-condition"]
      },
      "text" : {
        "status" : "generated",
        "div" : "<div xmlns=\"http://www.w3.org/1999/xhtml\"><a name=\"Condition_APS-2-preventive-medical-checkup-problem-12\"> </a><p class=\"res-header-id\"><b>Generated Narrative: Condition APS-2-preventive-medical-checkup-problem-12</b></p><a name=\"APS-2-preventive-medical-checkup-problem-12\"> </a><a name=\"hcAPS-2-preventive-medical-checkup-problem-12\"> </a><a name=\"APS-2-preventive-medical-checkup-problem-12-de-AT\"> </a><div style=\"display: inline-block; background-color: #d9e0e7; padding: 6px; margin: 4px; border: 1px solid #8da1b4; border-radius: 5px; line-height: 60%\"><p style=\"margin-bottom: 0px\"/><p style=\"margin-bottom: 0px\">Profile: <a href=\"StructureDefinition-at-aps-condition.html\">AT APS Condition</a></p></div><p><b>clinicalStatus</b>: <span title=\"Codes:{http://terminology.hl7.org/CodeSystem/condition-clinical active}\">Active</span></p><p><b>verificationStatus</b>: <span title=\"Codes:{http://terminology.hl7.org/CodeSystem/condition-ver-status confirmed}\">Confirmed</span></p><p><b>category</b>: <span title=\"Codes:{http://terminology.hl7.org/CodeSystem/condition-category problem-list-item}\">Problem List Item</span></p><p><b>code</b>: <span title=\"Codes:{http://snomed.info/sct 13644009}\">Hypercholesterolemia</span></p><p><b>subject</b>: <a href=\"Bundle-APS-1-no-problems-medication-allergies.html#urn-uuid-0fed5ebe-ca8f-4ad1-aba4-ddad45bd6cc8\">Bundle: identifier = http://system-to-be-defined.com#63fef90a-be11-4ddf-aece-d77da15c4f20; type = document; timestamp = 2024-02-08 14:01:30+0000</a></p></div>"
      },
      "clinicalStatus" : {
        "coding" : [{
          "system" : "http://terminology.hl7.org/CodeSystem/condition-clinical",
          "code" : "active",
          "display" : "Active"
        }]
      },
      "verificationStatus" : {
        "coding" : [{
          "system" : "http://terminology.hl7.org/CodeSystem/condition-ver-status",
          "code" : "confirmed",
          "display" : "Confirmed"
        }]
      },
      "category" : [{
        "coding" : [{
          "system" : "http://terminology.hl7.org/CodeSystem/condition-category",
          "code" : "problem-list-item",
          "display" : "Problem List Item"
        }]
      }],
      "code" : {
        "coding" : [{
          "system" : "http://snomed.info/sct",
          "code" : "13644009",
          "display" : "Hypercholesterolemia"
        }]
      },
      "subject" : {
        "reference" : "urn:uuid:0fed5ebe-ca8f-4ad1-aba4-ddad45bd6cc8"
      }
    }
  },
  {
    "fullUrl" : "urn:uuid:3f3140b1-9478-4491-b7bf-10560f38da0e",
    "resource" : {
      "resourceType" : "Condition",
      "id" : "APS-2-preventive-medical-checkup-problem-13",
      "meta" : {
        "profile" : ["https://fhir.hl7.at/elga/aps/r4/StructureDefinition/at-aps-condition"]
      },
      "text" : {
        "status" : "generated",
        "div" : "<div xmlns=\"http://www.w3.org/1999/xhtml\"><a name=\"Condition_APS-2-preventive-medical-checkup-problem-13\"> </a><p class=\"res-header-id\"><b>Generated Narrative: Condition APS-2-preventive-medical-checkup-problem-13</b></p><a name=\"APS-2-preventive-medical-checkup-problem-13\"> </a><a name=\"hcAPS-2-preventive-medical-checkup-problem-13\"> </a><a name=\"APS-2-preventive-medical-checkup-problem-13-de-AT\"> </a><div style=\"display: inline-block; background-color: #d9e0e7; padding: 6px; margin: 4px; border: 1px solid #8da1b4; border-radius: 5px; line-height: 60%\"><p style=\"margin-bottom: 0px\"/><p style=\"margin-bottom: 0px\">Profile: <a href=\"StructureDefinition-at-aps-condition.html\">AT APS Condition</a></p></div><p><b>clinicalStatus</b>: <span title=\"Codes:{http://terminology.hl7.org/CodeSystem/condition-clinical active}\">Active</span></p><p><b>verificationStatus</b>: <span title=\"Codes:{http://terminology.hl7.org/CodeSystem/condition-ver-status confirmed}\">Confirmed</span></p><p><b>category</b>: <span title=\"Codes:{http://terminology.hl7.org/CodeSystem/condition-category problem-list-item}\">Problem List Item</span></p><p><b>code</b>: <span title=\"Codes:{http://snomed.info/sct 160303001}\">Family history of diabetes mellitus (situation)</span></p><p><b>subject</b>: <a href=\"Bundle-APS-1-no-problems-medication-allergies.html#urn-uuid-0fed5ebe-ca8f-4ad1-aba4-ddad45bd6cc8\">Bundle: identifier = http://system-to-be-defined.com#63fef90a-be11-4ddf-aece-d77da15c4f20; type = document; timestamp = 2024-02-08 14:01:30+0000</a></p></div>"
      },
      "clinicalStatus" : {
        "coding" : [{
          "system" : "http://terminology.hl7.org/CodeSystem/condition-clinical",
          "code" : "active",
          "display" : "Active"
        }]
      },
      "verificationStatus" : {
        "coding" : [{
          "system" : "http://terminology.hl7.org/CodeSystem/condition-ver-status",
          "code" : "confirmed",
          "display" : "Confirmed"
        }]
      },
      "category" : [{
        "coding" : [{
          "system" : "http://terminology.hl7.org/CodeSystem/condition-category",
          "code" : "problem-list-item",
          "display" : "Problem List Item"
        }]
      }],
      "code" : {
        "coding" : [{
          "system" : "http://snomed.info/sct",
          "code" : "160303001",
          "display" : "Family history of diabetes mellitus (situation)"
        }]
      },
      "subject" : {
        "reference" : "urn:uuid:0fed5ebe-ca8f-4ad1-aba4-ddad45bd6cc8"
      }
    }
  },
  {
    "fullUrl" : "urn:uuid:caa77334-fbfc-4129-a101-1b01c595dd91",
    "resource" : {
      "resourceType" : "Condition",
      "id" : "APS-2-preventive-medical-checkup-problem-14",
      "meta" : {
        "profile" : ["https://fhir.hl7.at/elga/aps/r4/StructureDefinition/at-aps-condition"]
      },
      "text" : {
        "status" : "generated",
        "div" : "<div xmlns=\"http://www.w3.org/1999/xhtml\"><a name=\"Condition_APS-2-preventive-medical-checkup-problem-14\"> </a><p class=\"res-header-id\"><b>Generated Narrative: Condition APS-2-preventive-medical-checkup-problem-14</b></p><a name=\"APS-2-preventive-medical-checkup-problem-14\"> </a><a name=\"hcAPS-2-preventive-medical-checkup-problem-14\"> </a><a name=\"APS-2-preventive-medical-checkup-problem-14-de-AT\"> </a><div style=\"display: inline-block; background-color: #d9e0e7; padding: 6px; margin: 4px; border: 1px solid #8da1b4; border-radius: 5px; line-height: 60%\"><p style=\"margin-bottom: 0px\"/><p style=\"margin-bottom: 0px\">Profile: <a href=\"StructureDefinition-at-aps-condition.html\">AT APS Condition</a></p></div><p><b>clinicalStatus</b>: <span title=\"Codes:{http://terminology.hl7.org/CodeSystem/condition-clinical active}\">Active</span></p><p><b>verificationStatus</b>: <span title=\"Codes:{http://terminology.hl7.org/CodeSystem/condition-ver-status confirmed}\">Confirmed</span></p><p><b>category</b>: <span title=\"Codes:{http://terminology.hl7.org/CodeSystem/condition-category problem-list-item}\">Problem List Item</span></p><p><b>code</b>: <span title=\"Codes:{http://snomed.info/sct 312824007}\">Family history of cancer of colon</span></p><p><b>subject</b>: <a href=\"Bundle-APS-1-no-problems-medication-allergies.html#urn-uuid-0fed5ebe-ca8f-4ad1-aba4-ddad45bd6cc8\">Bundle: identifier = http://system-to-be-defined.com#63fef90a-be11-4ddf-aece-d77da15c4f20; type = document; timestamp = 2024-02-08 14:01:30+0000</a></p></div>"
      },
      "clinicalStatus" : {
        "coding" : [{
          "system" : "http://terminology.hl7.org/CodeSystem/condition-clinical",
          "code" : "active",
          "display" : "Active"
        }]
      },
      "verificationStatus" : {
        "coding" : [{
          "system" : "http://terminology.hl7.org/CodeSystem/condition-ver-status",
          "code" : "confirmed",
          "display" : "Confirmed"
        }]
      },
      "category" : [{
        "coding" : [{
          "system" : "http://terminology.hl7.org/CodeSystem/condition-category",
          "code" : "problem-list-item",
          "display" : "Problem List Item"
        }]
      }],
      "code" : {
        "coding" : [{
          "system" : "http://snomed.info/sct",
          "code" : "312824007",
          "display" : "Family history of cancer of colon"
        }]
      },
      "subject" : {
        "reference" : "urn:uuid:0fed5ebe-ca8f-4ad1-aba4-ddad45bd6cc8"
      }
    }
  },
  {
    "fullUrl" : "urn:uuid:e66d8ac1-a124-4e94-be22-969c9b117ce5",
    "resource" : {
      "resourceType" : "Condition",
      "id" : "APS-2-preventive-medical-checkup-problem-15",
      "meta" : {
        "profile" : ["https://fhir.hl7.at/elga/aps/r4/StructureDefinition/at-aps-condition"]
      },
      "text" : {
        "status" : "generated",
        "div" : "<div xmlns=\"http://www.w3.org/1999/xhtml\"><a name=\"Condition_APS-2-preventive-medical-checkup-problem-15\"> </a><p class=\"res-header-id\"><b>Generated Narrative: Condition APS-2-preventive-medical-checkup-problem-15</b></p><a name=\"APS-2-preventive-medical-checkup-problem-15\"> </a><a name=\"hcAPS-2-preventive-medical-checkup-problem-15\"> </a><a name=\"APS-2-preventive-medical-checkup-problem-15-de-AT\"> </a><div style=\"display: inline-block; background-color: #d9e0e7; padding: 6px; margin: 4px; border: 1px solid #8da1b4; border-radius: 5px; line-height: 60%\"><p style=\"margin-bottom: 0px\"/><p style=\"margin-bottom: 0px\">Profile: <a href=\"StructureDefinition-at-aps-condition.html\">AT APS Condition</a></p></div><p><b>clinicalStatus</b>: <span title=\"Codes:{http://terminology.hl7.org/CodeSystem/condition-clinical active}\">Active</span></p><p><b>verificationStatus</b>: <span title=\"Codes:{http://terminology.hl7.org/CodeSystem/condition-ver-status confirmed}\">Confirmed</span></p><p><b>category</b>: <span title=\"Codes:{http://terminology.hl7.org/CodeSystem/condition-category problem-list-item}\">Problem List Item</span></p><p><b>code</b>: <span title=\"Codes:{http://snomed.info/sct 134439009}\">Family history: premature coronary heart disease</span></p><p><b>subject</b>: <a href=\"Bundle-APS-1-no-problems-medication-allergies.html#urn-uuid-0fed5ebe-ca8f-4ad1-aba4-ddad45bd6cc8\">Bundle: identifier = http://system-to-be-defined.com#63fef90a-be11-4ddf-aece-d77da15c4f20; type = document; timestamp = 2024-02-08 14:01:30+0000</a></p></div>"
      },
      "clinicalStatus" : {
        "coding" : [{
          "system" : "http://terminology.hl7.org/CodeSystem/condition-clinical",
          "code" : "active",
          "display" : "Active"
        }]
      },
      "verificationStatus" : {
        "coding" : [{
          "system" : "http://terminology.hl7.org/CodeSystem/condition-ver-status",
          "code" : "confirmed",
          "display" : "Confirmed"
        }]
      },
      "category" : [{
        "coding" : [{
          "system" : "http://terminology.hl7.org/CodeSystem/condition-category",
          "code" : "problem-list-item",
          "display" : "Problem List Item"
        }]
      }],
      "code" : {
        "coding" : [{
          "system" : "http://snomed.info/sct",
          "code" : "134439009",
          "display" : "Family history: premature coronary heart disease"
        }]
      },
      "subject" : {
        "reference" : "urn:uuid:0fed5ebe-ca8f-4ad1-aba4-ddad45bd6cc8"
      }
    }
  },
  {
    "fullUrl" : "urn:uuid:5ab717ff-c0a0-409e-83db-0fa6f8619f68",
    "resource" : {
      "resourceType" : "Condition",
      "id" : "APS-2-preventive-medical-checkup-problem-16",
      "meta" : {
        "profile" : ["https://fhir.hl7.at/elga/aps/r4/StructureDefinition/at-aps-condition"]
      },
      "text" : {
        "status" : "generated",
        "div" : "<div xmlns=\"http://www.w3.org/1999/xhtml\"><a name=\"Condition_APS-2-preventive-medical-checkup-problem-16\"> </a><p class=\"res-header-id\"><b>Generated Narrative: Condition APS-2-preventive-medical-checkup-problem-16</b></p><a name=\"APS-2-preventive-medical-checkup-problem-16\"> </a><a name=\"hcAPS-2-preventive-medical-checkup-problem-16\"> </a><a name=\"APS-2-preventive-medical-checkup-problem-16-de-AT\"> </a><div style=\"display: inline-block; background-color: #d9e0e7; padding: 6px; margin: 4px; border: 1px solid #8da1b4; border-radius: 5px; line-height: 60%\"><p style=\"margin-bottom: 0px\"/><p style=\"margin-bottom: 0px\">Profile: <a href=\"StructureDefinition-at-aps-condition.html\">AT APS Condition</a></p></div><p><b>clinicalStatus</b>: <span title=\"Codes:{http://terminology.hl7.org/CodeSystem/condition-clinical active}\">Active</span></p><p><b>verificationStatus</b>: <span title=\"Codes:{http://terminology.hl7.org/CodeSystem/condition-ver-status confirmed}\">Confirmed</span></p><p><b>category</b>: <span title=\"Codes:{http://terminology.hl7.org/CodeSystem/condition-category problem-list-item}\">Problem List Item</span></p><p><b>code</b>: <span title=\"Codes:{http://snomed.info/sct 160314003}\">FH: Hypercholesterolemia</span></p><p><b>subject</b>: <a href=\"Bundle-APS-1-no-problems-medication-allergies.html#urn-uuid-0fed5ebe-ca8f-4ad1-aba4-ddad45bd6cc8\">Bundle: identifier = http://system-to-be-defined.com#63fef90a-be11-4ddf-aece-d77da15c4f20; type = document; timestamp = 2024-02-08 14:01:30+0000</a></p></div>"
      },
      "clinicalStatus" : {
        "coding" : [{
          "system" : "http://terminology.hl7.org/CodeSystem/condition-clinical",
          "code" : "active",
          "display" : "Active"
        }]
      },
      "verificationStatus" : {
        "coding" : [{
          "system" : "http://terminology.hl7.org/CodeSystem/condition-ver-status",
          "code" : "confirmed",
          "display" : "Confirmed"
        }]
      },
      "category" : [{
        "coding" : [{
          "system" : "http://terminology.hl7.org/CodeSystem/condition-category",
          "code" : "problem-list-item",
          "display" : "Problem List Item"
        }]
      }],
      "code" : {
        "coding" : [{
          "system" : "http://snomed.info/sct",
          "code" : "160314003",
          "display" : "FH: Hypercholesterolemia"
        }]
      },
      "subject" : {
        "reference" : "urn:uuid:0fed5ebe-ca8f-4ad1-aba4-ddad45bd6cc8"
      }
    }
  },
  {
    "fullUrl" : "urn:uuid:fa46fccb-5c24-4a40-a478-d6da4902ff33",
    "resource" : {
      "resourceType" : "Condition",
      "id" : "APS-2-preventive-medical-checkup-problem-17",
      "meta" : {
        "profile" : ["https://fhir.hl7.at/elga/aps/r4/StructureDefinition/at-aps-condition"]
      },
      "text" : {
        "status" : "generated",
        "div" : "<div xmlns=\"http://www.w3.org/1999/xhtml\"><a name=\"Condition_APS-2-preventive-medical-checkup-problem-17\"> </a><p class=\"res-header-id\"><b>Generated Narrative: Condition APS-2-preventive-medical-checkup-problem-17</b></p><a name=\"APS-2-preventive-medical-checkup-problem-17\"> </a><a name=\"hcAPS-2-preventive-medical-checkup-problem-17\"> </a><a name=\"APS-2-preventive-medical-checkup-problem-17-de-AT\"> </a><div style=\"display: inline-block; background-color: #d9e0e7; padding: 6px; margin: 4px; border: 1px solid #8da1b4; border-radius: 5px; line-height: 60%\"><p style=\"margin-bottom: 0px\"/><p style=\"margin-bottom: 0px\">Profile: <a href=\"StructureDefinition-at-aps-condition.html\">AT APS Condition</a></p></div><p><b>clinicalStatus</b>: <span title=\"Codes:{http://terminology.hl7.org/CodeSystem/condition-clinical inactive}\">Inactive</span></p><p><b>verificationStatus</b>: <span title=\"Codes:{http://terminology.hl7.org/CodeSystem/condition-ver-status provisional}\">Provisional</span></p><p><b>category</b>: <span title=\"Codes:{http://terminology.hl7.org/CodeSystem/condition-category problem-list-item}\">Problem List Item</span></p><p><b>code</b>: <span title=\"Codes:{http://snomed.info/sct 2556008}\">Periodontal disease (disorder)</span></p><p><b>subject</b>: <a href=\"Bundle-APS-1-no-problems-medication-allergies.html#urn-uuid-0fed5ebe-ca8f-4ad1-aba4-ddad45bd6cc8\">Bundle: identifier = http://system-to-be-defined.com#63fef90a-be11-4ddf-aece-d77da15c4f20; type = document; timestamp = 2024-02-08 14:01:30+0000</a></p><h3>Stages</h3><table class=\"grid\"><tr><td style=\"display: none\">-</td><td><b>Assessment</b></td></tr><tr><td style=\"display: none\">*</td><td><a href=\"Bundle-APS-2-preventive-medical-checkup.html#urn-uuid-f235c566-01aa-457d-ab49-9e422df69863\">Bundle: identifier = http://system-to-be-defined.com#63fef90a-be11-4ddf-aece-d77da15c4f20; type = document; timestamp = 2024-02-08 14:01:30+0000</a></td></tr></table></div>"
      },
      "clinicalStatus" : {
        "coding" : [{
          "system" : "http://terminology.hl7.org/CodeSystem/condition-clinical",
          "code" : "inactive",
          "display" : "Inactive"
        }]
      },
      "verificationStatus" : {
        "coding" : [{
          "system" : "http://terminology.hl7.org/CodeSystem/condition-ver-status",
          "code" : "provisional",
          "display" : "Provisional"
        }]
      },
      "category" : [{
        "coding" : [{
          "system" : "http://terminology.hl7.org/CodeSystem/condition-category",
          "code" : "problem-list-item",
          "display" : "Problem List Item"
        }]
      }],
      "code" : {
        "coding" : [{
          "system" : "http://snomed.info/sct",
          "code" : "2556008",
          "display" : "Periodontal disease (disorder)"
        }]
      },
      "subject" : {
        "reference" : "urn:uuid:0fed5ebe-ca8f-4ad1-aba4-ddad45bd6cc8"
      },
      "stage" : [{
        "assessment" : [{
          "reference" : "urn:uuid:f235c566-01aa-457d-ab49-9e422df69863"
        }]
      }]
    }
  },
  {
    "fullUrl" : "urn:uuid:f235c566-01aa-457d-ab49-9e422df69863",
    "resource" : {
      "resourceType" : "Observation",
      "id" : "APS-2-preventive-medical-checkup-problem-17-assessment-1",
      "text" : {
        "status" : "generated",
        "div" : "<div xmlns=\"http://www.w3.org/1999/xhtml\"><a name=\"Observation_APS-2-preventive-medical-checkup-problem-17-assessment-1\"> </a><p class=\"res-header-id\"><b>Generated Narrative: Observation APS-2-preventive-medical-checkup-problem-17-assessment-1</b></p><a name=\"APS-2-preventive-medical-checkup-problem-17-assessment-1\"> </a><a name=\"hcAPS-2-preventive-medical-checkup-problem-17-assessment-1\"> </a><a name=\"APS-2-preventive-medical-checkup-problem-17-assessment-1-de-AT\"> </a><p><b>status</b>: Final</p><p><b>category</b>: <span title=\"Codes:{http://terminology.hl7.org/CodeSystem/observation-category exam}\">Exam</span></p><p><b>code</b>: <span title=\"Codes:{http://snomed.info/sct 1237049003}\">Evaluation of risk factors for periodontal disease</span></p><p><b>subject</b>: <a href=\"Bundle-APS-1-no-problems-medication-allergies.html#urn-uuid-0fed5ebe-ca8f-4ad1-aba4-ddad45bd6cc8\">Bundle: identifier = http://system-to-be-defined.com#63fef90a-be11-4ddf-aece-d77da15c4f20; type = document; timestamp = 2024-02-08 14:01:30+0000</a></p><p><b>effective</b>: 2024-02-08 08:30:00+0100</p><p><b>performer</b>: <a href=\"Bundle-APS-2-preventive-medical-checkup.html#urn-uuid-82f802a7-56a9-49b4-a675-95da08f0d7a6\">Bundle: identifier = http://system-to-be-defined.com#63fef90a-be11-4ddf-aece-d77da15c4f20; type = document; timestamp = 2024-02-08 14:01:30+0000</a></p><p><b>value</b>: <span title=\"Codes:{http://snomed.info/sct 723509005}\">High risk</span></p></div>"
      },
      "status" : "final",
      "category" : [{
        "coding" : [{
          "system" : "http://terminology.hl7.org/CodeSystem/observation-category",
          "code" : "exam",
          "display" : "Exam"
        }]
      }],
      "code" : {
        "coding" : [{
          "system" : "http://snomed.info/sct",
          "code" : "1237049003",
          "display" : "Evaluation of risk factors for periodontal disease"
        }]
      },
      "subject" : {
        "reference" : "urn:uuid:0fed5ebe-ca8f-4ad1-aba4-ddad45bd6cc8"
      },
      "effectiveDateTime" : "2024-02-08T08:30:00+01:00",
      "performer" : [{
        "reference" : "urn:uuid:82f802a7-56a9-49b4-a675-95da08f0d7a6"
      }],
      "valueCodeableConcept" : {
        "coding" : [{
          "system" : "http://snomed.info/sct",
          "code" : "723509005",
          "display" : "High risk"
        }]
      }
    }
  },
  {
    "fullUrl" : "urn:uuid:acac4c94-a752-4cf5-9a6b-0d84237d5076",
    "resource" : {
      "resourceType" : "MedicationStatement",
      "id" : "APS-2-preventive-medical-checkup-medication-summary-1",
      "meta" : {
        "profile" : ["https://fhir.hl7.at/elga/aps/r4/StructureDefinition/at-aps-medicationstatement"]
      },
      "text" : {
        "status" : "generated",
        "div" : "<div xmlns=\"http://www.w3.org/1999/xhtml\"><a name=\"MedicationStatement_APS-2-preventive-medical-checkup-medication-summary-1\"> </a><p class=\"res-header-id\"><b>Generated Narrative: MedicationStatement APS-2-preventive-medical-checkup-medication-summary-1</b></p><a name=\"APS-2-preventive-medical-checkup-medication-summary-1\"> </a><a name=\"hcAPS-2-preventive-medical-checkup-medication-summary-1\"> </a><a name=\"APS-2-preventive-medical-checkup-medication-summary-1-de-AT\"> </a><div style=\"display: inline-block; background-color: #d9e0e7; padding: 6px; margin: 4px; border: 1px solid #8da1b4; border-radius: 5px; line-height: 60%\"><p style=\"margin-bottom: 0px\"/><p style=\"margin-bottom: 0px\">Profile: <a href=\"StructureDefinition-at-aps-medicationstatement.html\">AT APS MedicationStatement</a></p></div><p><b>status</b>: Active</p><p><b>medication</b>: <span title=\"Codes:{https://termgit.elga.gv.at/CodeSystem/asp-liste 2443061}\">EBETREXAT TBL 10MG</span></p><p><b>subject</b>: <a href=\"Bundle-APS-1-no-problems-medication-allergies.html#urn-uuid-0fed5ebe-ca8f-4ad1-aba4-ddad45bd6cc8\">Bundle: identifier = http://system-to-be-defined.com#63fef90a-be11-4ddf-aece-d77da15c4f20; type = document; timestamp = 2024-02-08 14:01:30+0000</a></p><p><b>effective</b>: 2024-02-08 10:31:58+0200 --&gt; (ongoing)</p><blockquote><p><b>dosage</b></p><p><b>sequence</b>: 1</p><p><b>timing</b>: Night, Once</p><p><b>route</b>: <span title=\"Codes:{http://snomed.info/sct 26643006}\">Oral use</span></p><h3>DoseAndRates</h3><table class=\"grid\"><tr><td style=\"display: none\">-</td><td><b>Dose[x]</b></td></tr><tr><td style=\"display: none\">*</td><td>2 Tablet<span style=\"background: LightGoldenRodYellow\"> (Details:   code15054000&quot; = '15054000&quot;')</span></td></tr></table></blockquote></div>"
      },
      "status" : "active",
      "medicationCodeableConcept" : {
        "coding" : [{
          "system" : "https://termgit.elga.gv.at/CodeSystem/asp-liste",
          "code" : "2443061",
          "display" : "EBETREXAT TBL 10MG"
        }]
      },
      "subject" : {
        "reference" : "urn:uuid:0fed5ebe-ca8f-4ad1-aba4-ddad45bd6cc8"
      },
      "effectivePeriod" : {
        "start" : "2024-02-08T10:31:58+02:00"
      },
      "dosage" : [{
        "sequence" : 1,
        "timing" : {
          "repeat" : {
            "dayOfWeek" : ["fri"],
            "when" : ["NIGHT"]
          }
        },
        "route" : {
          "coding" : [{
            "system" : "http://snomed.info/sct",
            "code" : "26643006",
            "display" : "Oral use"
          }]
        },
        "doseAndRate" : [{
          "doseQuantity" : {
            "value" : 2,
            "unit" : "Tablet",
            "system" : "https://standardterms.edqm.eu/",
            "code" : "15054000\""
          }
        }]
      }]
    }
  },
  {
    "fullUrl" : "urn:uuid:98285578-0bb6-42b2-908c-5bcc5e3992e0",
    "resource" : {
      "resourceType" : "MedicationStatement",
      "id" : "APS-2-preventive-medical-checkup-medication-summary-2",
      "meta" : {
        "profile" : ["https://fhir.hl7.at/elga/aps/r4/StructureDefinition/at-aps-medicationstatement"]
      },
      "text" : {
        "status" : "generated",
        "div" : "<div xmlns=\"http://www.w3.org/1999/xhtml\"><a name=\"MedicationStatement_APS-2-preventive-medical-checkup-medication-summary-2\"> </a><p class=\"res-header-id\"><b>Generated Narrative: MedicationStatement APS-2-preventive-medical-checkup-medication-summary-2</b></p><a name=\"APS-2-preventive-medical-checkup-medication-summary-2\"> </a><a name=\"hcAPS-2-preventive-medical-checkup-medication-summary-2\"> </a><a name=\"APS-2-preventive-medical-checkup-medication-summary-2-de-AT\"> </a><div style=\"display: inline-block; background-color: #d9e0e7; padding: 6px; margin: 4px; border: 1px solid #8da1b4; border-radius: 5px; line-height: 60%\"><p style=\"margin-bottom: 0px\"/><p style=\"margin-bottom: 0px\">Profile: <a href=\"StructureDefinition-at-aps-medicationstatement.html\">AT APS MedicationStatement</a></p></div><p><b>status</b>: Active</p><p><b>medication</b>: <span title=\"Codes:{https://termgit.elga.gv.at/CodeSystem/asp-liste 3779722}\">ELIQUIS FTBL 2,5MG</span></p><p><b>subject</b>: <a href=\"Bundle-APS-1-no-problems-medication-allergies.html#urn-uuid-0fed5ebe-ca8f-4ad1-aba4-ddad45bd6cc8\">Bundle: identifier = http://system-to-be-defined.com#63fef90a-be11-4ddf-aece-d77da15c4f20; type = document; timestamp = 2024-02-08 14:01:30+0000</a></p><p><b>effective</b>: 2024-02-08 10:31:58+0200 --&gt; (ongoing)</p><h3>Dosages</h3><table class=\"grid\"><tr><td style=\"display: none\">-</td><td><b>Text</b></td></tr><tr><td style=\"display: none\">*</td><td>S:1-0-0-1</td></tr></table></div>"
      },
      "status" : "active",
      "medicationCodeableConcept" : {
        "coding" : [{
          "system" : "https://termgit.elga.gv.at/CodeSystem/asp-liste",
          "code" : "3779722",
          "display" : "ELIQUIS FTBL 2,5MG"
        }]
      },
      "subject" : {
        "reference" : "urn:uuid:0fed5ebe-ca8f-4ad1-aba4-ddad45bd6cc8"
      },
      "effectivePeriod" : {
        "start" : "2024-02-08T10:31:58+02:00"
      },
      "dosage" : [{
        "text" : "S:1-0-0-1"
      }]
    }
  },
  {
    "fullUrl" : "urn:uuid:769a289d-a518-469a-8100-7943550e359f",
    "resource" : {
      "resourceType" : "MedicationStatement",
      "id" : "APS-2-preventive-medical-checkup-medication-summary-3",
      "meta" : {
        "profile" : ["https://fhir.hl7.at/elga/aps/r4/StructureDefinition/at-aps-medicationstatement"]
      },
      "text" : {
        "status" : "generated",
        "div" : "<div xmlns=\"http://www.w3.org/1999/xhtml\"><a name=\"MedicationStatement_APS-2-preventive-medical-checkup-medication-summary-3\"> </a><p class=\"res-header-id\"><b>Generated Narrative: MedicationStatement APS-2-preventive-medical-checkup-medication-summary-3</b></p><a name=\"APS-2-preventive-medical-checkup-medication-summary-3\"> </a><a name=\"hcAPS-2-preventive-medical-checkup-medication-summary-3\"> </a><a name=\"APS-2-preventive-medical-checkup-medication-summary-3-de-AT\"> </a><div style=\"display: inline-block; background-color: #d9e0e7; padding: 6px; margin: 4px; border: 1px solid #8da1b4; border-radius: 5px; line-height: 60%\"><p style=\"margin-bottom: 0px\"/><p style=\"margin-bottom: 0px\">Profile: <a href=\"StructureDefinition-at-aps-medicationstatement.html\">AT APS MedicationStatement</a></p></div><p><b>status</b>: Active</p><p><b>medication</b>: <span title=\"Codes:{https://termgit.elga.gv.at/CodeSystem/asp-liste 3910895}\">FORXIGA FTBL 10MG</span></p><p><b>subject</b>: <a href=\"Bundle-APS-1-no-problems-medication-allergies.html#urn-uuid-0fed5ebe-ca8f-4ad1-aba4-ddad45bd6cc8\">Bundle: identifier = http://system-to-be-defined.com#63fef90a-be11-4ddf-aece-d77da15c4f20; type = document; timestamp = 2024-02-08 14:01:30+0000</a></p><p><b>effective</b>: 2024-02-08 10:31:58+0200 --&gt; (ongoing)</p><h3>Dosages</h3><table class=\"grid\"><tr><td style=\"display: none\">-</td><td><b>Text</b></td></tr><tr><td style=\"display: none\">*</td><td>S:1-0-0-0</td></tr></table></div>"
      },
      "status" : "active",
      "medicationCodeableConcept" : {
        "coding" : [{
          "system" : "https://termgit.elga.gv.at/CodeSystem/asp-liste",
          "code" : "3910895",
          "display" : "FORXIGA FTBL 10MG"
        }]
      },
      "subject" : {
        "reference" : "urn:uuid:0fed5ebe-ca8f-4ad1-aba4-ddad45bd6cc8"
      },
      "effectivePeriod" : {
        "start" : "2024-02-08T10:31:58+02:00"
      },
      "dosage" : [{
        "text" : "S:1-0-0-0"
      }]
    }
  },
  {
    "fullUrl" : "urn:uuid:9cb3b3df-7b15-4270-af39-5f2f819e692e",
    "resource" : {
      "resourceType" : "MedicationStatement",
      "id" : "APS-2-preventive-medical-checkup-medication-summary-4",
      "meta" : {
        "profile" : ["https://fhir.hl7.at/elga/aps/r4/StructureDefinition/at-aps-medicationstatement"]
      },
      "text" : {
        "status" : "generated",
        "div" : "<div xmlns=\"http://www.w3.org/1999/xhtml\"><a name=\"MedicationStatement_APS-2-preventive-medical-checkup-medication-summary-4\"> </a><p class=\"res-header-id\"><b>Generated Narrative: MedicationStatement APS-2-preventive-medical-checkup-medication-summary-4</b></p><a name=\"APS-2-preventive-medical-checkup-medication-summary-4\"> </a><a name=\"hcAPS-2-preventive-medical-checkup-medication-summary-4\"> </a><a name=\"APS-2-preventive-medical-checkup-medication-summary-4-de-AT\"> </a><div style=\"display: inline-block; background-color: #d9e0e7; padding: 6px; margin: 4px; border: 1px solid #8da1b4; border-radius: 5px; line-height: 60%\"><p style=\"margin-bottom: 0px\"/><p style=\"margin-bottom: 0px\">Profile: <a href=\"StructureDefinition-at-aps-medicationstatement.html\">AT APS MedicationStatement</a></p></div><p><b>status</b>: Active</p><p><b>medication</b>: <span title=\"Codes:{https://termgit.elga.gv.at/CodeSystem/asp-liste 4476685}\">GEROFOL TBL 5MG</span></p><p><b>subject</b>: <a href=\"Bundle-APS-1-no-problems-medication-allergies.html#urn-uuid-0fed5ebe-ca8f-4ad1-aba4-ddad45bd6cc8\">Bundle: identifier = http://system-to-be-defined.com#63fef90a-be11-4ddf-aece-d77da15c4f20; type = document; timestamp = 2024-02-08 14:01:30+0000</a></p><p><b>effective</b>: 2024-02-08 10:31:58+0200 --&gt; (ongoing)</p><h3>Dosages</h3><table class=\"grid\"><tr><td style=\"display: none\">-</td><td><b>Text</b></td></tr><tr><td style=\"display: none\">*</td><td>S:MO, MI</td></tr></table></div>"
      },
      "status" : "active",
      "medicationCodeableConcept" : {
        "coding" : [{
          "system" : "https://termgit.elga.gv.at/CodeSystem/asp-liste",
          "code" : "4476685",
          "display" : "GEROFOL TBL 5MG"
        }]
      },
      "subject" : {
        "reference" : "urn:uuid:0fed5ebe-ca8f-4ad1-aba4-ddad45bd6cc8"
      },
      "effectivePeriod" : {
        "start" : "2024-02-08T10:31:58+02:00"
      },
      "dosage" : [{
        "text" : "S:MO, MI"
      }]
    }
  },
  {
    "fullUrl" : "urn:uuid:da89fd22-0d4f-4220-a625-b9ddf5eb330d",
    "resource" : {
      "resourceType" : "MedicationStatement",
      "id" : "APS-2-preventive-medical-checkup-medication-summary-5",
      "meta" : {
        "profile" : ["https://fhir.hl7.at/elga/aps/r4/StructureDefinition/at-aps-medicationstatement"]
      },
      "text" : {
        "status" : "generated",
        "div" : "<div xmlns=\"http://www.w3.org/1999/xhtml\"><a name=\"MedicationStatement_APS-2-preventive-medical-checkup-medication-summary-5\"> </a><p class=\"res-header-id\"><b>Generated Narrative: MedicationStatement APS-2-preventive-medical-checkup-medication-summary-5</b></p><a name=\"APS-2-preventive-medical-checkup-medication-summary-5\"> </a><a name=\"hcAPS-2-preventive-medical-checkup-medication-summary-5\"> </a><a name=\"APS-2-preventive-medical-checkup-medication-summary-5-de-AT\"> </a><div style=\"display: inline-block; background-color: #d9e0e7; padding: 6px; margin: 4px; border: 1px solid #8da1b4; border-radius: 5px; line-height: 60%\"><p style=\"margin-bottom: 0px\"/><p style=\"margin-bottom: 0px\">Profile: <a href=\"StructureDefinition-at-aps-medicationstatement.html\">AT APS MedicationStatement</a></p></div><p><b>status</b>: Active</p><p><b>medication</b>: <span title=\"Codes:{https://termgit.elga.gv.at/CodeSystem/asp-liste 3780576}\">IBANDRONSAEURE SAN FSPR 3MG</span></p><p><b>subject</b>: <a href=\"Bundle-APS-1-no-problems-medication-allergies.html#urn-uuid-0fed5ebe-ca8f-4ad1-aba4-ddad45bd6cc8\">Bundle: identifier = http://system-to-be-defined.com#63fef90a-be11-4ddf-aece-d77da15c4f20; type = document; timestamp = 2024-02-08 14:01:30+0000</a></p><p><b>effective</b>: 2024-02-08 10:31:58+0200 --&gt; (ongoing)</p><h3>Dosages</h3><table class=\"grid\"><tr><td style=\"display: none\">-</td><td><b>Text</b></td></tr><tr><td style=\"display: none\">*</td><td>S:0,33/Monat, alle 3 Monate</td></tr></table></div>"
      },
      "status" : "active",
      "medicationCodeableConcept" : {
        "coding" : [{
          "system" : "https://termgit.elga.gv.at/CodeSystem/asp-liste",
          "code" : "3780576",
          "display" : "IBANDRONSAEURE SAN FSPR 3MG"
        }]
      },
      "subject" : {
        "reference" : "urn:uuid:0fed5ebe-ca8f-4ad1-aba4-ddad45bd6cc8"
      },
      "effectivePeriod" : {
        "start" : "2024-02-08T10:31:58+02:00"
      },
      "dosage" : [{
        "text" : "S:0,33/Monat, alle 3 Monate"
      }]
    }
  },
  {
    "fullUrl" : "urn:uuid:e526f7e5-2f76-484e-acde-d6f2365f0859",
    "resource" : {
      "resourceType" : "MedicationStatement",
      "id" : "APS-2-preventive-medical-checkup-medication-summary-6",
      "meta" : {
        "profile" : ["https://fhir.hl7.at/elga/aps/r4/StructureDefinition/at-aps-medicationstatement"]
      },
      "text" : {
        "status" : "generated",
        "div" : "<div xmlns=\"http://www.w3.org/1999/xhtml\"><a name=\"MedicationStatement_APS-2-preventive-medical-checkup-medication-summary-6\"> </a><p class=\"res-header-id\"><b>Generated Narrative: MedicationStatement APS-2-preventive-medical-checkup-medication-summary-6</b></p><a name=\"APS-2-preventive-medical-checkup-medication-summary-6\"> </a><a name=\"hcAPS-2-preventive-medical-checkup-medication-summary-6\"> </a><a name=\"APS-2-preventive-medical-checkup-medication-summary-6-de-AT\"> </a><div style=\"display: inline-block; background-color: #d9e0e7; padding: 6px; margin: 4px; border: 1px solid #8da1b4; border-radius: 5px; line-height: 60%\"><p style=\"margin-bottom: 0px\"/><p style=\"margin-bottom: 0px\">Profile: <a href=\"StructureDefinition-at-aps-medicationstatement.html\">AT APS MedicationStatement</a></p></div><p><b>status</b>: Active</p><p><b>medication</b>: <span title=\"Codes:{https://termgit.elga.gv.at/CodeSystem/asp-liste 1294446}\">METFORMIN HEX FTBL  500MG</span></p><p><b>subject</b>: <a href=\"Bundle-APS-1-no-problems-medication-allergies.html#urn-uuid-0fed5ebe-ca8f-4ad1-aba4-ddad45bd6cc8\">Bundle: identifier = http://system-to-be-defined.com#63fef90a-be11-4ddf-aece-d77da15c4f20; type = document; timestamp = 2024-02-08 14:01:30+0000</a></p><p><b>effective</b>: 2024-02-08 10:31:58+0200 --&gt; (ongoing)</p><h3>Dosages</h3><table class=\"grid\"><tr><td style=\"display: none\">-</td><td><b>Text</b></td></tr><tr><td style=\"display: none\">*</td><td>S:1-0-0-1</td></tr></table></div>"
      },
      "status" : "active",
      "medicationCodeableConcept" : {
        "coding" : [{
          "system" : "https://termgit.elga.gv.at/CodeSystem/asp-liste",
          "code" : "1294446",
          "display" : "METFORMIN HEX FTBL  500MG"
        }]
      },
      "subject" : {
        "reference" : "urn:uuid:0fed5ebe-ca8f-4ad1-aba4-ddad45bd6cc8"
      },
      "effectivePeriod" : {
        "start" : "2024-02-08T10:31:58+02:00"
      },
      "dosage" : [{
        "text" : "S:1-0-0-1"
      }]
    }
  },
  {
    "fullUrl" : "urn:uuid:6d15d84f-2faf-4141-ac0c-fb9cf8496abe",
    "resource" : {
      "resourceType" : "MedicationStatement",
      "id" : "APS-2-preventive-medical-checkup-medication-summary-7",
      "meta" : {
        "profile" : ["https://fhir.hl7.at/elga/aps/r4/StructureDefinition/at-aps-medicationstatement"]
      },
      "text" : {
        "status" : "generated",
        "div" : "<div xmlns=\"http://www.w3.org/1999/xhtml\"><a name=\"MedicationStatement_APS-2-preventive-medical-checkup-medication-summary-7\"> </a><p class=\"res-header-id\"><b>Generated Narrative: MedicationStatement APS-2-preventive-medical-checkup-medication-summary-7</b></p><a name=\"APS-2-preventive-medical-checkup-medication-summary-7\"> </a><a name=\"hcAPS-2-preventive-medical-checkup-medication-summary-7\"> </a><a name=\"APS-2-preventive-medical-checkup-medication-summary-7-de-AT\"> </a><div style=\"display: inline-block; background-color: #d9e0e7; padding: 6px; margin: 4px; border: 1px solid #8da1b4; border-radius: 5px; line-height: 60%\"><p style=\"margin-bottom: 0px\"/><p style=\"margin-bottom: 0px\">Profile: <a href=\"StructureDefinition-at-aps-medicationstatement.html\">AT APS MedicationStatement</a></p></div><p><b>status</b>: Active</p><p><b>medication</b>: <span title=\"Codes:{https://termgit.elga.gv.at/CodeSystem/asp-liste 2450888}\">RAMIPRIL 1A TBL  5MG</span></p><p><b>subject</b>: <a href=\"Bundle-APS-1-no-problems-medication-allergies.html#urn-uuid-0fed5ebe-ca8f-4ad1-aba4-ddad45bd6cc8\">Bundle: identifier = http://system-to-be-defined.com#63fef90a-be11-4ddf-aece-d77da15c4f20; type = document; timestamp = 2024-02-08 14:01:30+0000</a></p><p><b>effective</b>: 2024-02-08 10:31:58+0200 --&gt; (ongoing)</p><h3>Dosages</h3><table class=\"grid\"><tr><td style=\"display: none\">-</td><td><b>Text</b></td></tr><tr><td style=\"display: none\">*</td><td>S:1-0-0-0</td></tr></table></div>"
      },
      "status" : "active",
      "medicationCodeableConcept" : {
        "coding" : [{
          "system" : "https://termgit.elga.gv.at/CodeSystem/asp-liste",
          "code" : "2450888",
          "display" : "RAMIPRIL 1A TBL  5MG"
        }]
      },
      "subject" : {
        "reference" : "urn:uuid:0fed5ebe-ca8f-4ad1-aba4-ddad45bd6cc8"
      },
      "effectivePeriod" : {
        "start" : "2024-02-08T10:31:58+02:00"
      },
      "dosage" : [{
        "text" : "S:1-0-0-0"
      }]
    }
  },
  {
    "fullUrl" : "urn:uuid:ecf9728f-fa50-4b46-b8f7-7768174df72a",
    "resource" : {
      "resourceType" : "MedicationStatement",
      "id" : "APS-2-preventive-medical-checkup-medication-summary-8",
      "meta" : {
        "profile" : ["https://fhir.hl7.at/elga/aps/r4/StructureDefinition/at-aps-medicationstatement"]
      },
      "text" : {
        "status" : "generated",
        "div" : "<div xmlns=\"http://www.w3.org/1999/xhtml\"><a name=\"MedicationStatement_APS-2-preventive-medical-checkup-medication-summary-8\"> </a><p class=\"res-header-id\"><b>Generated Narrative: MedicationStatement APS-2-preventive-medical-checkup-medication-summary-8</b></p><a name=\"APS-2-preventive-medical-checkup-medication-summary-8\"> </a><a name=\"hcAPS-2-preventive-medical-checkup-medication-summary-8\"> </a><a name=\"APS-2-preventive-medical-checkup-medication-summary-8-de-AT\"> </a><div style=\"display: inline-block; background-color: #d9e0e7; padding: 6px; margin: 4px; border: 1px solid #8da1b4; border-radius: 5px; line-height: 60%\"><p style=\"margin-bottom: 0px\"/><p style=\"margin-bottom: 0px\">Profile: <a href=\"StructureDefinition-at-aps-medicationstatement.html\">AT APS MedicationStatement</a></p></div><p><b>status</b>: Active</p><p><b>medication</b>: <span title=\"Codes:{https://termgit.elga.gv.at/CodeSystem/asp-liste 4466132}\">ROSUVASTATIN 1A FTBL 10MG</span></p><p><b>subject</b>: <a href=\"Bundle-APS-1-no-problems-medication-allergies.html#urn-uuid-0fed5ebe-ca8f-4ad1-aba4-ddad45bd6cc8\">Bundle: identifier = http://system-to-be-defined.com#63fef90a-be11-4ddf-aece-d77da15c4f20; type = document; timestamp = 2024-02-08 14:01:30+0000</a></p><p><b>effective</b>: 2024-02-08 10:31:58+0200 --&gt; (ongoing)</p></div>"
      },
      "status" : "active",
      "medicationCodeableConcept" : {
        "coding" : [{
          "system" : "https://termgit.elga.gv.at/CodeSystem/asp-liste",
          "code" : "4466132",
          "display" : "ROSUVASTATIN 1A FTBL 10MG"
        }]
      },
      "subject" : {
        "reference" : "urn:uuid:0fed5ebe-ca8f-4ad1-aba4-ddad45bd6cc8"
      },
      "effectivePeriod" : {
        "start" : "2024-02-08T10:31:58+02:00"
      }
    }
  },
  {
    "fullUrl" : "urn:uuid:cf4b2e92-51e6-44de-9406-5406e66e9d45",
    "resource" : {
      "resourceType" : "MedicationStatement",
      "id" : "APS-2-preventive-medical-checkup-medication-summary-9",
      "meta" : {
        "profile" : ["https://fhir.hl7.at/elga/aps/r4/StructureDefinition/at-aps-medicationstatement"]
      },
      "text" : {
        "status" : "generated",
        "div" : "<div xmlns=\"http://www.w3.org/1999/xhtml\"><a name=\"MedicationStatement_APS-2-preventive-medical-checkup-medication-summary-9\"> </a><p class=\"res-header-id\"><b>Generated Narrative: MedicationStatement APS-2-preventive-medical-checkup-medication-summary-9</b></p><a name=\"APS-2-preventive-medical-checkup-medication-summary-9\"> </a><a name=\"hcAPS-2-preventive-medical-checkup-medication-summary-9\"> </a><a name=\"APS-2-preventive-medical-checkup-medication-summary-9-de-AT\"> </a><div style=\"display: inline-block; background-color: #d9e0e7; padding: 6px; margin: 4px; border: 1px solid #8da1b4; border-radius: 5px; line-height: 60%\"><p style=\"margin-bottom: 0px\"/><p style=\"margin-bottom: 0px\">Profile: <a href=\"StructureDefinition-at-aps-medicationstatement.html\">AT APS MedicationStatement</a></p></div><p><b>status</b>: Active</p><p><b>medication</b>: <span title=\"Codes:{https://termgit.elga.gv.at/CodeSystem/asp-liste 4477087}\">SEMGLEE INJ 100E/ML FPEN 3ML</span></p><p><b>subject</b>: <a href=\"Bundle-APS-1-no-problems-medication-allergies.html#urn-uuid-0fed5ebe-ca8f-4ad1-aba4-ddad45bd6cc8\">Bundle: identifier = http://system-to-be-defined.com#63fef90a-be11-4ddf-aece-d77da15c4f20; type = document; timestamp = 2024-02-08 14:01:30+0000</a></p><p><b>effective</b>: 2024-02-08 10:31:58+0200 --&gt; (ongoing)</p><h3>Dosages</h3><table class=\"grid\"><tr><td style=\"display: none\">-</td><td><b>Text</b></td></tr><tr><td style=\"display: none\">*</td><td>S:0-0-0-10</td></tr></table></div>"
      },
      "status" : "active",
      "medicationCodeableConcept" : {
        "coding" : [{
          "system" : "https://termgit.elga.gv.at/CodeSystem/asp-liste",
          "code" : "4477087",
          "display" : "SEMGLEE INJ 100E/ML FPEN 3ML"
        }]
      },
      "subject" : {
        "reference" : "urn:uuid:0fed5ebe-ca8f-4ad1-aba4-ddad45bd6cc8"
      },
      "effectivePeriod" : {
        "start" : "2024-02-08T10:31:58+02:00"
      },
      "dosage" : [{
        "text" : "S:0-0-0-10"
      }]
    }
  },
  {
    "fullUrl" : "urn:uuid:768eb9cb-00f3-4ab1-bfc2-ff835cb3b89b",
    "resource" : {
      "resourceType" : "AllergyIntolerance",
      "id" : "APS-2-preventive-medical-checkup-allergy-1",
      "meta" : {
        "profile" : ["https://fhir.hl7.at/elga/aps/r4/StructureDefinition/at-aps-allergyintolerance"]
      },
      "text" : {
        "status" : "generated",
        "div" : "<div xmlns=\"http://www.w3.org/1999/xhtml\"><a name=\"AllergyIntolerance_APS-2-preventive-medical-checkup-allergy-1\"> </a><p class=\"res-header-id\"><b>Generated Narrative: AllergyIntolerance APS-2-preventive-medical-checkup-allergy-1</b></p><a name=\"APS-2-preventive-medical-checkup-allergy-1\"> </a><a name=\"hcAPS-2-preventive-medical-checkup-allergy-1\"> </a><a name=\"APS-2-preventive-medical-checkup-allergy-1-de-AT\"> </a><div style=\"display: inline-block; background-color: #d9e0e7; padding: 6px; margin: 4px; border: 1px solid #8da1b4; border-radius: 5px; line-height: 60%\"><p style=\"margin-bottom: 0px\"/><p style=\"margin-bottom: 0px\">Profile: <a href=\"StructureDefinition-at-aps-allergyintolerance.html\">AT APS AllergyIntolerance</a></p></div><p><b>clinicalStatus</b>: <span title=\"Codes:{http://terminology.hl7.org/CodeSystem/allergyintolerance-clinical active}\">Active</span></p><p><b>code</b>: <span title=\"Codes:{https://termgit.elga.gv.at/CodeSystem/snomed-ct-auszug 128488006}\">Hausstaub</span></p><p><b>patient</b>: <a href=\"Bundle-APS-1-no-problems-medication-allergies.html#urn-uuid-0fed5ebe-ca8f-4ad1-aba4-ddad45bd6cc8\">Bundle: identifier = http://system-to-be-defined.com#63fef90a-be11-4ddf-aece-d77da15c4f20; type = document; timestamp = 2024-02-08 14:01:30+0000</a></p></div>"
      },
      "clinicalStatus" : {
        "coding" : [{
          "system" : "http://terminology.hl7.org/CodeSystem/allergyintolerance-clinical",
          "code" : "active",
          "display" : "Active"
        }]
      },
      "code" : {
        "coding" : [{
          "system" : "https://termgit.elga.gv.at/CodeSystem/snomed-ct-auszug",
          "code" : "128488006",
          "display" : "Hausstaub"
        }]
      },
      "patient" : {
        "reference" : "urn:uuid:0fed5ebe-ca8f-4ad1-aba4-ddad45bd6cc8"
      }
    }
  },
  {
    "fullUrl" : "urn:uuid:75c46c35-8f4e-4232-b026-5672c60d076a",
    "resource" : {
      "resourceType" : "Procedure",
      "id" : "APS-2-preventive-medical-checkup-procedure-history-1",
      "meta" : {
        "profile" : ["https://fhir.hl7.at/elga/aps/r4/StructureDefinition/at-aps-Procedure"]
      },
      "text" : {
        "status" : "generated",
        "div" : "<div xmlns=\"http://www.w3.org/1999/xhtml\"><a name=\"Procedure_APS-2-preventive-medical-checkup-procedure-history-1\"> </a><p class=\"res-header-id\"><b>Generated Narrative: Procedure APS-2-preventive-medical-checkup-procedure-history-1</b></p><a name=\"APS-2-preventive-medical-checkup-procedure-history-1\"> </a><a name=\"hcAPS-2-preventive-medical-checkup-procedure-history-1\"> </a><a name=\"APS-2-preventive-medical-checkup-procedure-history-1-de-AT\"> </a><div style=\"display: inline-block; background-color: #d9e0e7; padding: 6px; margin: 4px; border: 1px solid #8da1b4; border-radius: 5px; line-height: 60%\"><p style=\"margin-bottom: 0px\"/><p style=\"margin-bottom: 0px\">Profile: <a href=\"StructureDefinition-at-aps-Procedure.html\">AT APS Procedure</a></p></div><p><b>status</b>: Completed</p><p><b>code</b>: <span title=\"Codes:{http://snomed.info/sct 770606008}\">Total replacement of left hip joint</span></p><p><b>subject</b>: <a href=\"Bundle-APS-1-no-problems-medication-allergies.html#urn-uuid-0fed5ebe-ca8f-4ad1-aba4-ddad45bd6cc8\">Bundle: identifier = http://system-to-be-defined.com#63fef90a-be11-4ddf-aece-d77da15c4f20; type = document; timestamp = 2024-02-08 14:01:30+0000</a></p><p><b>performed</b>: 2010</p></div>"
      },
      "status" : "completed",
      "code" : {
        "coding" : [{
          "system" : "http://snomed.info/sct",
          "code" : "770606008",
          "display" : "Total replacement of left hip joint"
        }]
      },
      "subject" : {
        "reference" : "urn:uuid:0fed5ebe-ca8f-4ad1-aba4-ddad45bd6cc8"
      },
      "performedDateTime" : "2010"
    }
  },
  {
    "fullUrl" : "urn:uuid:8103f99c-64f0-4dd5-b92e-5c9680c91e47",
    "resource" : {
      "resourceType" : "Procedure",
      "id" : "APS-2-preventive-medical-checkup-procedure-history-2",
      "meta" : {
        "profile" : ["https://fhir.hl7.at/elga/aps/r4/StructureDefinition/at-aps-Procedure"]
      },
      "text" : {
        "status" : "generated",
        "div" : "<div xmlns=\"http://www.w3.org/1999/xhtml\"><a name=\"Procedure_APS-2-preventive-medical-checkup-procedure-history-2\"> </a><p class=\"res-header-id\"><b>Generated Narrative: Procedure APS-2-preventive-medical-checkup-procedure-history-2</b></p><a name=\"APS-2-preventive-medical-checkup-procedure-history-2\"> </a><a name=\"hcAPS-2-preventive-medical-checkup-procedure-history-2\"> </a><a name=\"APS-2-preventive-medical-checkup-procedure-history-2-de-AT\"> </a><div style=\"display: inline-block; background-color: #d9e0e7; padding: 6px; margin: 4px; border: 1px solid #8da1b4; border-radius: 5px; line-height: 60%\"><p style=\"margin-bottom: 0px\"/><p style=\"margin-bottom: 0px\">Profile: <a href=\"StructureDefinition-at-aps-Procedure.html\">AT APS Procedure</a></p></div><p><b>status</b>: Completed</p><p><b>code</b>: <span title=\"Codes:{http://snomed.info/sct 80146002}\">Appendectomy</span></p><p><b>subject</b>: <a href=\"Bundle-APS-1-no-problems-medication-allergies.html#urn-uuid-0fed5ebe-ca8f-4ad1-aba4-ddad45bd6cc8\">Bundle: identifier = http://system-to-be-defined.com#63fef90a-be11-4ddf-aece-d77da15c4f20; type = document; timestamp = 2024-02-08 14:01:30+0000</a></p><p><b>performed</b>: 1962</p></div>"
      },
      "status" : "completed",
      "code" : {
        "coding" : [{
          "system" : "http://snomed.info/sct",
          "code" : "80146002",
          "display" : "Appendectomy"
        }]
      },
      "subject" : {
        "reference" : "urn:uuid:0fed5ebe-ca8f-4ad1-aba4-ddad45bd6cc8"
      },
      "performedDateTime" : "1962"
    }
  },
  {
    "fullUrl" : "urn:uuid:8a825f17-1599-4928-b384-0ca4a62daba8",
    "resource" : {
      "resourceType" : "Procedure",
      "id" : "APS-2-preventive-medical-checkup-procedure-history-3",
      "meta" : {
        "profile" : ["https://fhir.hl7.at/elga/aps/r4/StructureDefinition/at-aps-Procedure"]
      },
      "text" : {
        "status" : "generated",
        "div" : "<div xmlns=\"http://www.w3.org/1999/xhtml\"><a name=\"Procedure_APS-2-preventive-medical-checkup-procedure-history-3\"> </a><p class=\"res-header-id\"><b>Generated Narrative: Procedure APS-2-preventive-medical-checkup-procedure-history-3</b></p><a name=\"APS-2-preventive-medical-checkup-procedure-history-3\"> </a><a name=\"hcAPS-2-preventive-medical-checkup-procedure-history-3\"> </a><a name=\"APS-2-preventive-medical-checkup-procedure-history-3-de-AT\"> </a><div style=\"display: inline-block; background-color: #d9e0e7; padding: 6px; margin: 4px; border: 1px solid #8da1b4; border-radius: 5px; line-height: 60%\"><p style=\"margin-bottom: 0px\"/><p style=\"margin-bottom: 0px\">Profile: <a href=\"StructureDefinition-at-aps-Procedure.html\">AT APS Procedure</a></p></div><p><b>status</b>: Completed</p><p><b>code</b>: <span title=\"Codes:{http://snomed.info/sct 73761001}\">Colonoscopy (procedure)</span></p><p><b>subject</b>: <a href=\"Bundle-APS-1-no-problems-medication-allergies.html#urn-uuid-0fed5ebe-ca8f-4ad1-aba4-ddad45bd6cc8\">Bundle: identifier = http://system-to-be-defined.com#63fef90a-be11-4ddf-aece-d77da15c4f20; type = document; timestamp = 2024-02-08 14:01:30+0000</a></p><p><b>performed</b>: 2014</p></div>"
      },
      "status" : "completed",
      "code" : {
        "coding" : [{
          "system" : "http://snomed.info/sct",
          "code" : "73761001",
          "display" : "Colonoscopy (procedure)"
        }]
      },
      "subject" : {
        "reference" : "urn:uuid:0fed5ebe-ca8f-4ad1-aba4-ddad45bd6cc8"
      },
      "performedDateTime" : "2014"
    }
  },
  {
    "fullUrl" : "urn:uuid:5218bc54-5d55-42fa-aa0c-169b61577ad0",
    "resource" : {
      "resourceType" : "Specimen",
      "id" : "APS-2-preventive-medical-checkup-diagnostic-specimen-1",
      "meta" : {
        "profile" : ["https://fhir.hl7.at/elga/aps/r4/StructureDefinition/at-aps-specimen"]
      },
      "text" : {
        "status" : "generated",
        "div" : "<div xmlns=\"http://www.w3.org/1999/xhtml\"><a name=\"Specimen_APS-2-preventive-medical-checkup-diagnostic-specimen-1\"> </a><p class=\"res-header-id\"><b>Generated Narrative: Specimen APS-2-preventive-medical-checkup-diagnostic-specimen-1</b></p><a name=\"APS-2-preventive-medical-checkup-diagnostic-specimen-1\"> </a><a name=\"hcAPS-2-preventive-medical-checkup-diagnostic-specimen-1\"> </a><a name=\"APS-2-preventive-medical-checkup-diagnostic-specimen-1-de-AT\"> </a><div style=\"display: inline-block; background-color: #d9e0e7; padding: 6px; margin: 4px; border: 1px solid #8da1b4; border-radius: 5px; line-height: 60%\"><p style=\"margin-bottom: 0px\"/><p style=\"margin-bottom: 0px\">Profile: <a href=\"StructureDefinition-at-aps-specimen.html\">AT APS Specimen</a></p></div><p><b>status</b>: Unavailable</p><p><b>type</b>: <span title=\"Codes:{https://termgit.elga.gv.at/CodeSystem/snomed-ct-auszug 119297000}\">Blood specimen</span></p><p><b>subject</b>: <a href=\"Bundle-APS-1-no-problems-medication-allergies.html#urn-uuid-0fed5ebe-ca8f-4ad1-aba4-ddad45bd6cc8\">Bundle: identifier = http://system-to-be-defined.com#63fef90a-be11-4ddf-aece-d77da15c4f20; type = document; timestamp = 2024-02-08 14:01:30+0000</a></p></div>"
      },
      "status" : "unavailable",
      "type" : {
        "coding" : [{
          "system" : "https://termgit.elga.gv.at/CodeSystem/snomed-ct-auszug",
          "code" : "119297000",
          "display" : "Blood specimen"
        }]
      },
      "subject" : {
        "reference" : "urn:uuid:0fed5ebe-ca8f-4ad1-aba4-ddad45bd6cc8"
      }
    }
  },
  {
    "fullUrl" : "urn:uuid:725bcf71-22e6-473b-a879-49a4b63cd654",
    "resource" : {
      "resourceType" : "Observation",
      "id" : "APS-2-preventive-medical-checkup-diagnostic-result-1",
      "meta" : {
        "profile" : ["https://fhir.hl7.at/elga/aps/r4/StructureDefinition/at-aps-observationresultslaboratorypathology"]
      },
      "text" : {
        "status" : "generated",
        "div" : "<div xmlns=\"http://www.w3.org/1999/xhtml\"><a name=\"Observation_APS-2-preventive-medical-checkup-diagnostic-result-1\"> </a><p class=\"res-header-id\"><b>Generated Narrative: Observation APS-2-preventive-medical-checkup-diagnostic-result-1</b></p><a name=\"APS-2-preventive-medical-checkup-diagnostic-result-1\"> </a><a name=\"hcAPS-2-preventive-medical-checkup-diagnostic-result-1\"> </a><a name=\"APS-2-preventive-medical-checkup-diagnostic-result-1-de-AT\"> </a><div style=\"display: inline-block; background-color: #d9e0e7; padding: 6px; margin: 4px; border: 1px solid #8da1b4; border-radius: 5px; line-height: 60%\"><p style=\"margin-bottom: 0px\"/><p style=\"margin-bottom: 0px\">Profile: <a href=\"StructureDefinition-at-aps-observationresultslaboratorypathology.html\">AT APS Observation Results Laboratory Pathology</a></p></div><p><b>status</b>: Final</p><p><b>category</b>: <span title=\"Codes:{https://termgit.elga.gv.at/CodeSystem/elga-laborparameterergaenzung 100}\">Transfusions-/Transplantationsdiagnostik/Immungenetik</span>, <span title=\"Codes:{https://termgit.elga.gv.at/CodeSystem/elga-laborparameterergaenzung 01850}\">Blutgruppenserologie</span>, <span title=\"Codes:{http://terminology.hl7.org/CodeSystem/observation-category laboratory}\">Laboratory</span></p><p><b>code</b>: <span title=\"Codes:{http://loinc.org 882-1}\">AB0 und Rh-Blutgruppensysteme [Typ] in Blut</span></p><p><b>subject</b>: <a href=\"Bundle-APS-1-no-problems-medication-allergies.html#urn-uuid-0fed5ebe-ca8f-4ad1-aba4-ddad45bd6cc8\">Bundle: identifier = http://system-to-be-defined.com#63fef90a-be11-4ddf-aece-d77da15c4f20; type = document; timestamp = 2024-02-08 14:01:30+0000</a></p><p><b>effective</b>: 2024-02-08 07:34:06+0100</p><p><b>performer</b>: <a href=\"Bundle-APS-2-preventive-medical-checkup.html#urn-uuid-82f802a7-56a9-49b4-a675-95da08f0d7a6\">Bundle: identifier = http://system-to-be-defined.com#63fef90a-be11-4ddf-aece-d77da15c4f20; type = document; timestamp = 2024-02-08 14:01:30+0000</a></p><p><b>value</b>: <span title=\"Codes:{http://snomed.info/sct 278149003}\">Blood group A Rh(D) positive (finding)</span></p><p><b>specimen</b>: <a href=\"Bundle-APS-2-preventive-medical-checkup.html#urn-uuid-5218bc54-5d55-42fa-aa0c-169b61577ad0\">Bundle: identifier = http://system-to-be-defined.com#63fef90a-be11-4ddf-aece-d77da15c4f20; type = document; timestamp = 2024-02-08 14:01:30+0000</a></p></div>"
      },
      "status" : "final",
      "category" : [{
        "coding" : [{
          "system" : "https://termgit.elga.gv.at/CodeSystem/elga-laborparameterergaenzung",
          "code" : "100",
          "display" : "Transfusions-/Transplantationsdiagnostik/Immungenetik"
        }]
      },
      {
        "coding" : [{
          "system" : "https://termgit.elga.gv.at/CodeSystem/elga-laborparameterergaenzung",
          "code" : "01850",
          "display" : "Blutgruppenserologie"
        }]
      },
      {
        "coding" : [{
          "system" : "http://terminology.hl7.org/CodeSystem/observation-category",
          "code" : "laboratory",
          "display" : "Laboratory"
        }]
      }],
      "code" : {
        "coding" : [{
          "system" : "http://loinc.org",
          "code" : "882-1",
          "display" : "AB0 und Rh-Blutgruppensysteme [Typ] in Blut"
        }]
      },
      "subject" : {
        "reference" : "urn:uuid:0fed5ebe-ca8f-4ad1-aba4-ddad45bd6cc8"
      },
      "effectiveDateTime" : "2024-02-08T07:34:06+01:00",
      "performer" : [{
        "reference" : "urn:uuid:82f802a7-56a9-49b4-a675-95da08f0d7a6"
      }],
      "valueCodeableConcept" : {
        "coding" : [{
          "system" : "http://snomed.info/sct",
          "code" : "278149003",
          "display" : "Blood group A Rh(D) positive (finding)"
        }]
      },
      "specimen" : {
        "reference" : "urn:uuid:5218bc54-5d55-42fa-aa0c-169b61577ad0"
      }
    }
  },
  {
    "fullUrl" : "urn:uuid:aeff2319-2cc2-4fba-9541-7a4de3d20f91",
    "resource" : {
      "resourceType" : "Observation",
      "id" : "APS-2-preventive-medical-checkup-diagnostic-result-2",
      "meta" : {
        "profile" : ["https://fhir.hl7.at/elga/aps/r4/StructureDefinition/at-aps-observationresultslaboratorypathology"]
      },
      "text" : {
        "status" : "generated",
        "div" : "<div xmlns=\"http://www.w3.org/1999/xhtml\"><a name=\"Observation_APS-2-preventive-medical-checkup-diagnostic-result-2\"> </a><p class=\"res-header-id\"><b>Generated Narrative: Observation APS-2-preventive-medical-checkup-diagnostic-result-2</b></p><a name=\"APS-2-preventive-medical-checkup-diagnostic-result-2\"> </a><a name=\"hcAPS-2-preventive-medical-checkup-diagnostic-result-2\"> </a><a name=\"APS-2-preventive-medical-checkup-diagnostic-result-2-de-AT\"> </a><div style=\"display: inline-block; background-color: #d9e0e7; padding: 6px; margin: 4px; border: 1px solid #8da1b4; border-radius: 5px; line-height: 60%\"><p style=\"margin-bottom: 0px\"/><p style=\"margin-bottom: 0px\">Profile: <a href=\"StructureDefinition-at-aps-observationresultslaboratorypathology.html\">AT APS Observation Results Laboratory Pathology</a></p></div><p><b>status</b>: Final</p><p><b>category</b>: <span title=\"Codes:{https://termgit.elga.gv.at/CodeSystem/elga-laborparameterergaenzung 500}\">Klinische Chemie/Proteindiagnostik</span>, <span title=\"Codes:{http://terminology.hl7.org/CodeSystem/observation-category laboratory}\">Laboratory</span></p><p><b>code</b>: <span title=\"Codes:{https://termgit.elga.gv.at/CodeSystem/elga-laborparameterergaenzung 500}\">Klinische Chemie/Proteindiagnostik</span></p><p><b>subject</b>: <a href=\"Bundle-APS-1-no-problems-medication-allergies.html#urn-uuid-0fed5ebe-ca8f-4ad1-aba4-ddad45bd6cc8\">Bundle: identifier = http://system-to-be-defined.com#63fef90a-be11-4ddf-aece-d77da15c4f20; type = document; timestamp = 2024-02-08 14:01:30+0000</a></p><p><b>effective</b>: 2024-02-08 07:56:06+0100</p><p><b>performer</b>: <a href=\"Bundle-APS-2-preventive-medical-checkup.html#urn-uuid-82f802a7-56a9-49b4-a675-95da08f0d7a6\">Bundle: identifier = http://system-to-be-defined.com#63fef90a-be11-4ddf-aece-d77da15c4f20; type = document; timestamp = 2024-02-08 14:01:30+0000</a></p><p><b>specimen</b>: <a href=\"Bundle-APS-2-preventive-medical-checkup.html#urn-uuid-5218bc54-5d55-42fa-aa0c-169b61577ad0\">Bundle: identifier = http://system-to-be-defined.com#63fef90a-be11-4ddf-aece-d77da15c4f20; type = document; timestamp = 2024-02-08 14:01:30+0000</a></p><p><b>hasMember</b>: </p><ul><li><a href=\"Bundle-APS-2-preventive-medical-checkup.html#urn-uuid-d16dce15-bc5a-48a5-910e-6ac039785a2a\">Bundle: identifier = http://system-to-be-defined.com#63fef90a-be11-4ddf-aece-d77da15c4f20; type = document; timestamp = 2024-02-08 14:01:30+0000</a></li><li><a href=\"Bundle-APS-2-preventive-medical-checkup.html#urn-uuid-96314fcd-3b0c-4032-8cac-6eb59579d90a\">Bundle: identifier = http://system-to-be-defined.com#63fef90a-be11-4ddf-aece-d77da15c4f20; type = document; timestamp = 2024-02-08 14:01:30+0000</a></li><li><a href=\"Bundle-APS-2-preventive-medical-checkup.html#urn-uuid-30c8a990-ea39-4dcb-9e1e-b9ac74afffc9\">Bundle: identifier = http://system-to-be-defined.com#63fef90a-be11-4ddf-aece-d77da15c4f20; type = document; timestamp = 2024-02-08 14:01:30+0000</a></li><li><a href=\"Bundle-APS-2-preventive-medical-checkup.html#urn-uuid-f29ac02d-762e-436e-b40c-667ab89e15f2\">Bundle: identifier = http://system-to-be-defined.com#63fef90a-be11-4ddf-aece-d77da15c4f20; type = document; timestamp = 2024-02-08 14:01:30+0000</a></li><li><a href=\"Bundle-APS-2-preventive-medical-checkup.html#urn-uuid-28a773ea-38c7-4c77-86c4-7764325756e7\">Bundle: identifier = http://system-to-be-defined.com#63fef90a-be11-4ddf-aece-d77da15c4f20; type = document; timestamp = 2024-02-08 14:01:30+0000</a></li><li><a href=\"Bundle-APS-2-preventive-medical-checkup.html#urn-uuid-b675680e-9469-41b1-adc1-093904e3a1d3\">Bundle: identifier = http://system-to-be-defined.com#63fef90a-be11-4ddf-aece-d77da15c4f20; type = document; timestamp = 2024-02-08 14:01:30+0000</a></li></ul></div>"
      },
      "status" : "final",
      "category" : [{
        "coding" : [{
          "system" : "https://termgit.elga.gv.at/CodeSystem/elga-laborparameterergaenzung",
          "code" : "500",
          "display" : "Klinische Chemie/Proteindiagnostik"
        }]
      },
      {
        "coding" : [{
          "system" : "http://terminology.hl7.org/CodeSystem/observation-category",
          "code" : "laboratory",
          "display" : "Laboratory"
        }]
      }],
      "code" : {
        "coding" : [{
          "system" : "https://termgit.elga.gv.at/CodeSystem/elga-laborparameterergaenzung",
          "code" : "500",
          "display" : "Klinische Chemie/Proteindiagnostik"
        }]
      },
      "subject" : {
        "reference" : "urn:uuid:0fed5ebe-ca8f-4ad1-aba4-ddad45bd6cc8"
      },
      "effectiveDateTime" : "2024-02-08T07:56:06+01:00",
      "performer" : [{
        "reference" : "urn:uuid:82f802a7-56a9-49b4-a675-95da08f0d7a6"
      }],
      "specimen" : {
        "reference" : "urn:uuid:5218bc54-5d55-42fa-aa0c-169b61577ad0"
      },
      "hasMember" : [{
        "reference" : "urn:uuid:d16dce15-bc5a-48a5-910e-6ac039785a2a"
      },
      {
        "reference" : "urn:uuid:96314fcd-3b0c-4032-8cac-6eb59579d90a"
      },
      {
        "reference" : "urn:uuid:30c8a990-ea39-4dcb-9e1e-b9ac74afffc9"
      },
      {
        "reference" : "urn:uuid:f29ac02d-762e-436e-b40c-667ab89e15f2"
      },
      {
        "reference" : "urn:uuid:28a773ea-38c7-4c77-86c4-7764325756e7"
      },
      {
        "reference" : "urn:uuid:b675680e-9469-41b1-adc1-093904e3a1d3"
      }]
    }
  },
  {
    "fullUrl" : "urn:uuid:d16dce15-bc5a-48a5-910e-6ac039785a2a",
    "resource" : {
      "resourceType" : "Observation",
      "id" : "APS-2-preventive-medical-checkup-diagnostic-result-3",
      "meta" : {
        "profile" : ["https://fhir.hl7.at/elga/aps/r4/StructureDefinition/at-aps-observationresultslaboratorypathology"]
      },
      "language" : "de-AT",
      "text" : {
        "status" : "generated",
        "div" : "<div xmlns=\"http://www.w3.org/1999/xhtml\" xml:lang=\"de-AT\" lang=\"de-AT\"><a name=\"Observation_APS-2-preventive-medical-checkup-diagnostic-result-3\"> </a><p class=\"res-header-id\"><b>Generated Narrative: Observation APS-2-preventive-medical-checkup-diagnostic-result-3</b></p><a name=\"APS-2-preventive-medical-checkup-diagnostic-result-3\"> </a><a name=\"hcAPS-2-preventive-medical-checkup-diagnostic-result-3\"> </a><a name=\"APS-2-preventive-medical-checkup-diagnostic-result-3-de-AT\"> </a><div style=\"display: inline-block; background-color: #d9e0e7; padding: 6px; margin: 4px; border: 1px solid #8da1b4; border-radius: 5px; line-height: 60%\"><p style=\"margin-bottom: 0px\">Language: de-AT</p><p style=\"margin-bottom: 0px\">Profile: <a href=\"StructureDefinition-at-aps-observationresultslaboratorypathology.html\">AT APS Observation Results Laboratory Pathology</a></p></div><p><b>status</b>: Final</p><p><b>category</b>: <span title=\"Codes:{https://termgit.elga.gv.at/CodeSystem/elga-laborparameterergaenzung 05180}\">Klinische Chemie</span>, <span title=\"Codes:{http://terminology.hl7.org/CodeSystem/observation-category laboratory}\">Laboratory</span></p><p><b>code</b>: <span title=\"Codes:{http://loinc.org 2093-3}\">Cholesterin</span></p><p><b>subject</b>: <a href=\"Bundle-APS-1-no-problems-medication-allergies.html#urn-uuid-0fed5ebe-ca8f-4ad1-aba4-ddad45bd6cc8\">Bundle: identifier = http://system-to-be-defined.com#63fef90a-be11-4ddf-aece-d77da15c4f20; type = document; timestamp = 2024-02-08 14:01:30+0000</a></p><p><b>effective</b>: 2024-02-08 07:34:06+0100</p><p><b>performer</b>: <a href=\"Bundle-APS-2-preventive-medical-checkup.html#urn-uuid-82f802a7-56a9-49b4-a675-95da08f0d7a6\">Bundle: identifier = http://system-to-be-defined.com#63fef90a-be11-4ddf-aece-d77da15c4f20; type = document; timestamp = 2024-02-08 14:01:30+0000</a></p><p><b>value</b>: 180 mg/dL<span style=\"background: LightGoldenRodYellow\"> (Details: UCUM  codemg/dL = 'mg/dL')</span></p><p><b>specimen</b>: <a href=\"Bundle-APS-2-preventive-medical-checkup.html#urn-uuid-5218bc54-5d55-42fa-aa0c-169b61577ad0\">Bundle: identifier = http://system-to-be-defined.com#63fef90a-be11-4ddf-aece-d77da15c4f20; type = document; timestamp = 2024-02-08 14:01:30+0000</a></p></div>"
      },
      "status" : "final",
      "category" : [{
        "coding" : [{
          "system" : "https://termgit.elga.gv.at/CodeSystem/elga-laborparameterergaenzung",
          "code" : "05180",
          "display" : "Klinische Chemie"
        }]
      },
      {
        "coding" : [{
          "system" : "http://terminology.hl7.org/CodeSystem/observation-category",
          "code" : "laboratory",
          "display" : "Laboratory"
        }]
      }],
      "code" : {
        "coding" : [{
          "system" : "http://loinc.org",
          "code" : "2093-3",
          "display" : "Cholesterin"
        }]
      },
      "subject" : {
        "reference" : "urn:uuid:0fed5ebe-ca8f-4ad1-aba4-ddad45bd6cc8"
      },
      "effectiveDateTime" : "2024-02-08T07:34:06+01:00",
      "performer" : [{
        "reference" : "urn:uuid:82f802a7-56a9-49b4-a675-95da08f0d7a6"
      }],
      "valueQuantity" : {
        "value" : 180,
        "unit" : "mg/dL",
        "system" : "http://unitsofmeasure.org",
        "code" : "mg/dL"
      },
      "specimen" : {
        "reference" : "urn:uuid:5218bc54-5d55-42fa-aa0c-169b61577ad0"
      }
    }
  },
  {
    "fullUrl" : "urn:uuid:96314fcd-3b0c-4032-8cac-6eb59579d90a",
    "resource" : {
      "resourceType" : "Observation",
      "id" : "APS-2-preventive-medical-checkup-diagnostic-result-4",
      "meta" : {
        "profile" : ["https://fhir.hl7.at/elga/aps/r4/StructureDefinition/at-aps-observationresultslaboratorypathology"]
      },
      "language" : "de-AT",
      "text" : {
        "status" : "generated",
        "div" : "<div xmlns=\"http://www.w3.org/1999/xhtml\" xml:lang=\"de-AT\" lang=\"de-AT\"><a name=\"Observation_APS-2-preventive-medical-checkup-diagnostic-result-4\"> </a><p class=\"res-header-id\"><b>Generated Narrative: Observation APS-2-preventive-medical-checkup-diagnostic-result-4</b></p><a name=\"APS-2-preventive-medical-checkup-diagnostic-result-4\"> </a><a name=\"hcAPS-2-preventive-medical-checkup-diagnostic-result-4\"> </a><a name=\"APS-2-preventive-medical-checkup-diagnostic-result-4-de-AT\"> </a><div style=\"display: inline-block; background-color: #d9e0e7; padding: 6px; margin: 4px; border: 1px solid #8da1b4; border-radius: 5px; line-height: 60%\"><p style=\"margin-bottom: 0px\">Language: de-AT</p><p style=\"margin-bottom: 0px\">Profile: <a href=\"StructureDefinition-at-aps-observationresultslaboratorypathology.html\">AT APS Observation Results Laboratory Pathology</a></p></div><p><b>status</b>: Final</p><p><b>category</b>: <span title=\"Codes:{https://termgit.elga.gv.at/CodeSystem/elga-laborparameterergaenzung 05180}\">Klinische Chemie</span>, <span title=\"Codes:{http://terminology.hl7.org/CodeSystem/observation-category laboratory}\">Laboratory</span></p><p><b>code</b>: <span title=\"Codes:{http://loinc.org 2085-9}\">HDL-Cholesterin</span></p><p><b>subject</b>: <a href=\"Bundle-APS-1-no-problems-medication-allergies.html#urn-uuid-0fed5ebe-ca8f-4ad1-aba4-ddad45bd6cc8\">Bundle: identifier = http://system-to-be-defined.com#63fef90a-be11-4ddf-aece-d77da15c4f20; type = document; timestamp = 2024-02-08 14:01:30+0000</a></p><p><b>effective</b>: 2024-02-08 07:34:06+0100</p><p><b>performer</b>: <a href=\"Bundle-APS-2-preventive-medical-checkup.html#urn-uuid-82f802a7-56a9-49b4-a675-95da08f0d7a6\">Bundle: identifier = http://system-to-be-defined.com#63fef90a-be11-4ddf-aece-d77da15c4f20; type = document; timestamp = 2024-02-08 14:01:30+0000</a></p><p><b>value</b>: 45 mg/dL<span style=\"background: LightGoldenRodYellow\"> (Details: UCUM  codemg/dL = 'mg/dL')</span></p><p><b>specimen</b>: <a href=\"Bundle-APS-2-preventive-medical-checkup.html#urn-uuid-5218bc54-5d55-42fa-aa0c-169b61577ad0\">Bundle: identifier = http://system-to-be-defined.com#63fef90a-be11-4ddf-aece-d77da15c4f20; type = document; timestamp = 2024-02-08 14:01:30+0000</a></p></div>"
      },
      "status" : "final",
      "category" : [{
        "coding" : [{
          "system" : "https://termgit.elga.gv.at/CodeSystem/elga-laborparameterergaenzung",
          "code" : "05180",
          "display" : "Klinische Chemie"
        }]
      },
      {
        "coding" : [{
          "system" : "http://terminology.hl7.org/CodeSystem/observation-category",
          "code" : "laboratory",
          "display" : "Laboratory"
        }]
      }],
      "code" : {
        "coding" : [{
          "system" : "http://loinc.org",
          "code" : "2085-9",
          "display" : "HDL-Cholesterin"
        }]
      },
      "subject" : {
        "reference" : "urn:uuid:0fed5ebe-ca8f-4ad1-aba4-ddad45bd6cc8"
      },
      "effectiveDateTime" : "2024-02-08T07:34:06+01:00",
      "performer" : [{
        "reference" : "urn:uuid:82f802a7-56a9-49b4-a675-95da08f0d7a6"
      }],
      "valueQuantity" : {
        "value" : 45,
        "unit" : "mg/dL",
        "system" : "http://unitsofmeasure.org",
        "code" : "mg/dL"
      },
      "specimen" : {
        "reference" : "urn:uuid:5218bc54-5d55-42fa-aa0c-169b61577ad0"
      }
    }
  },
  {
    "fullUrl" : "urn:uuid:30c8a990-ea39-4dcb-9e1e-b9ac74afffc9",
    "resource" : {
      "resourceType" : "Observation",
      "id" : "APS-2-preventive-medical-checkup-diagnostic-result-5",
      "meta" : {
        "profile" : ["https://fhir.hl7.at/elga/aps/r4/StructureDefinition/at-aps-observationresultslaboratorypathology"]
      },
      "text" : {
        "status" : "generated",
        "div" : "<div xmlns=\"http://www.w3.org/1999/xhtml\"><a name=\"Observation_APS-2-preventive-medical-checkup-diagnostic-result-5\"> </a><p class=\"res-header-id\"><b>Generated Narrative: Observation APS-2-preventive-medical-checkup-diagnostic-result-5</b></p><a name=\"APS-2-preventive-medical-checkup-diagnostic-result-5\"> </a><a name=\"hcAPS-2-preventive-medical-checkup-diagnostic-result-5\"> </a><a name=\"APS-2-preventive-medical-checkup-diagnostic-result-5-de-AT\"> </a><div style=\"display: inline-block; background-color: #d9e0e7; padding: 6px; margin: 4px; border: 1px solid #8da1b4; border-radius: 5px; line-height: 60%\"><p style=\"margin-bottom: 0px\"/><p style=\"margin-bottom: 0px\">Profile: <a href=\"StructureDefinition-at-aps-observationresultslaboratorypathology.html\">AT APS Observation Results Laboratory Pathology</a></p></div><p><b>status</b>: Final</p><p><b>category</b>: <span title=\"Codes:{https://termgit.elga.gv.at/CodeSystem/elga-laborparameterergaenzung 05180}\">Klinische Chemie</span>, <span title=\"Codes:{http://terminology.hl7.org/CodeSystem/observation-category laboratory}\">Laboratory</span></p><p><b>code</b>: <span title=\"Codes:{http://loinc.org 9830-1}\">Cholesterol.gesamt/Cholesterol in HDL [Massenverhältnis] in Serum oder Plasma</span></p><p><b>subject</b>: <a href=\"Bundle-APS-1-no-problems-medication-allergies.html#urn-uuid-0fed5ebe-ca8f-4ad1-aba4-ddad45bd6cc8\">Bundle: identifier = http://system-to-be-defined.com#63fef90a-be11-4ddf-aece-d77da15c4f20; type = document; timestamp = 2024-02-08 14:01:30+0000</a></p><p><b>effective</b>: 2024-02-08 07:34:06+0100</p><p><b>performer</b>: <a href=\"Bundle-APS-2-preventive-medical-checkup.html#urn-uuid-82f802a7-56a9-49b4-a675-95da08f0d7a6\">Bundle: identifier = http://system-to-be-defined.com#63fef90a-be11-4ddf-aece-d77da15c4f20; type = document; timestamp = 2024-02-08 14:01:30+0000</a></p><p><b>value</b>: 4 {ratio}<span style=\"background: LightGoldenRodYellow\"> (Details: UCUM  code{ratio} = '{ratio}')</span></p><p><b>specimen</b>: <a href=\"Bundle-APS-2-preventive-medical-checkup.html#urn-uuid-5218bc54-5d55-42fa-aa0c-169b61577ad0\">Bundle: identifier = http://system-to-be-defined.com#63fef90a-be11-4ddf-aece-d77da15c4f20; type = document; timestamp = 2024-02-08 14:01:30+0000</a></p></div>"
      },
      "status" : "final",
      "category" : [{
        "coding" : [{
          "system" : "https://termgit.elga.gv.at/CodeSystem/elga-laborparameterergaenzung",
          "code" : "05180",
          "display" : "Klinische Chemie"
        }]
      },
      {
        "coding" : [{
          "system" : "http://terminology.hl7.org/CodeSystem/observation-category",
          "code" : "laboratory",
          "display" : "Laboratory"
        }]
      }],
      "code" : {
        "coding" : [{
          "system" : "http://loinc.org",
          "code" : "9830-1",
          "display" : "Cholesterol.gesamt/Cholesterol in HDL [Massenverhältnis] in Serum oder Plasma"
        }]
      },
      "subject" : {
        "reference" : "urn:uuid:0fed5ebe-ca8f-4ad1-aba4-ddad45bd6cc8"
      },
      "effectiveDateTime" : "2024-02-08T07:34:06+01:00",
      "performer" : [{
        "reference" : "urn:uuid:82f802a7-56a9-49b4-a675-95da08f0d7a6"
      }],
      "valueQuantity" : {
        "value" : 4,
        "unit" : "{ratio}",
        "system" : "http://unitsofmeasure.org",
        "code" : "{ratio}"
      },
      "specimen" : {
        "reference" : "urn:uuid:5218bc54-5d55-42fa-aa0c-169b61577ad0"
      }
    }
  },
  {
    "fullUrl" : "urn:uuid:f29ac02d-762e-436e-b40c-667ab89e15f2",
    "resource" : {
      "resourceType" : "Observation",
      "id" : "APS-2-preventive-medical-checkup-diagnostic-result-6",
      "meta" : {
        "profile" : ["https://fhir.hl7.at/elga/aps/r4/StructureDefinition/at-aps-observationresultslaboratorypathology"]
      },
      "language" : "de-AT",
      "text" : {
        "status" : "generated",
        "div" : "<div xmlns=\"http://www.w3.org/1999/xhtml\" xml:lang=\"de-AT\" lang=\"de-AT\"><a name=\"Observation_APS-2-preventive-medical-checkup-diagnostic-result-6\"> </a><p class=\"res-header-id\"><b>Generated Narrative: Observation APS-2-preventive-medical-checkup-diagnostic-result-6</b></p><a name=\"APS-2-preventive-medical-checkup-diagnostic-result-6\"> </a><a name=\"hcAPS-2-preventive-medical-checkup-diagnostic-result-6\"> </a><a name=\"APS-2-preventive-medical-checkup-diagnostic-result-6-de-AT\"> </a><div style=\"display: inline-block; background-color: #d9e0e7; padding: 6px; margin: 4px; border: 1px solid #8da1b4; border-radius: 5px; line-height: 60%\"><p style=\"margin-bottom: 0px\">Language: de-AT</p><p style=\"margin-bottom: 0px\">Profile: <a href=\"StructureDefinition-at-aps-observationresultslaboratorypathology.html\">AT APS Observation Results Laboratory Pathology</a></p></div><p><b>status</b>: Final</p><p><b>category</b>: <span title=\"Codes:{https://termgit.elga.gv.at/CodeSystem/elga-laborparameterergaenzung 05180}\">Klinische Chemie</span>, <span title=\"Codes:{http://terminology.hl7.org/CodeSystem/observation-category laboratory}\">Laboratory</span></p><p><b>code</b>: <span title=\"Codes:{http://loinc.org 2571-8}\">Triglyceride</span></p><p><b>subject</b>: <a href=\"Bundle-APS-1-no-problems-medication-allergies.html#urn-uuid-0fed5ebe-ca8f-4ad1-aba4-ddad45bd6cc8\">Bundle: identifier = http://system-to-be-defined.com#63fef90a-be11-4ddf-aece-d77da15c4f20; type = document; timestamp = 2024-02-08 14:01:30+0000</a></p><p><b>effective</b>: 2024-02-08 07:34:06+0100</p><p><b>performer</b>: <a href=\"Bundle-APS-2-preventive-medical-checkup.html#urn-uuid-82f802a7-56a9-49b4-a675-95da08f0d7a6\">Bundle: identifier = http://system-to-be-defined.com#63fef90a-be11-4ddf-aece-d77da15c4f20; type = document; timestamp = 2024-02-08 14:01:30+0000</a></p><p><b>value</b>: 130 mg/dL<span style=\"background: LightGoldenRodYellow\"> (Details: UCUM  codemg/dL = 'mg/dL')</span></p><p><b>specimen</b>: <a href=\"Bundle-APS-2-preventive-medical-checkup.html#urn-uuid-5218bc54-5d55-42fa-aa0c-169b61577ad0\">Bundle: identifier = http://system-to-be-defined.com#63fef90a-be11-4ddf-aece-d77da15c4f20; type = document; timestamp = 2024-02-08 14:01:30+0000</a></p></div>"
      },
      "status" : "final",
      "category" : [{
        "coding" : [{
          "system" : "https://termgit.elga.gv.at/CodeSystem/elga-laborparameterergaenzung",
          "code" : "05180",
          "display" : "Klinische Chemie"
        }]
      },
      {
        "coding" : [{
          "system" : "http://terminology.hl7.org/CodeSystem/observation-category",
          "code" : "laboratory",
          "display" : "Laboratory"
        }]
      }],
      "code" : {
        "coding" : [{
          "system" : "http://loinc.org",
          "code" : "2571-8",
          "display" : "Triglyceride"
        }]
      },
      "subject" : {
        "reference" : "urn:uuid:0fed5ebe-ca8f-4ad1-aba4-ddad45bd6cc8"
      },
      "effectiveDateTime" : "2024-02-08T07:34:06+01:00",
      "performer" : [{
        "reference" : "urn:uuid:82f802a7-56a9-49b4-a675-95da08f0d7a6"
      }],
      "valueQuantity" : {
        "value" : 130,
        "unit" : "mg/dL",
        "system" : "http://unitsofmeasure.org",
        "code" : "mg/dL"
      },
      "specimen" : {
        "reference" : "urn:uuid:5218bc54-5d55-42fa-aa0c-169b61577ad0"
      }
    }
  },
  {
    "fullUrl" : "urn:uuid:28a773ea-38c7-4c77-86c4-7764325756e7",
    "resource" : {
      "resourceType" : "Observation",
      "id" : "APS-2-preventive-medical-checkup-diagnostic-result-7",
      "meta" : {
        "profile" : ["https://fhir.hl7.at/elga/aps/r4/StructureDefinition/at-aps-observationresultslaboratorypathology"]
      },
      "language" : "de-AT",
      "text" : {
        "status" : "generated",
        "div" : "<div xmlns=\"http://www.w3.org/1999/xhtml\" xml:lang=\"de-AT\" lang=\"de-AT\"><a name=\"Observation_APS-2-preventive-medical-checkup-diagnostic-result-7\"> </a><p class=\"res-header-id\"><b>Generated Narrative: Observation APS-2-preventive-medical-checkup-diagnostic-result-7</b></p><a name=\"APS-2-preventive-medical-checkup-diagnostic-result-7\"> </a><a name=\"hcAPS-2-preventive-medical-checkup-diagnostic-result-7\"> </a><a name=\"APS-2-preventive-medical-checkup-diagnostic-result-7-de-AT\"> </a><div style=\"display: inline-block; background-color: #d9e0e7; padding: 6px; margin: 4px; border: 1px solid #8da1b4; border-radius: 5px; line-height: 60%\"><p style=\"margin-bottom: 0px\">Language: de-AT</p><p style=\"margin-bottom: 0px\">Profile: <a href=\"StructureDefinition-at-aps-observationresultslaboratorypathology.html\">AT APS Observation Results Laboratory Pathology</a></p></div><p><b>status</b>: Final</p><p><b>category</b>: <span title=\"Codes:{https://termgit.elga.gv.at/CodeSystem/elga-laborparameterergaenzung 05180}\">Klinische Chemie</span>, <span title=\"Codes:{http://terminology.hl7.org/CodeSystem/observation-category laboratory}\">Laboratory</span></p><p><b>code</b>: <span title=\"Codes:{http://loinc.org 2324-2}\">Gamma-GT</span></p><p><b>subject</b>: <a href=\"Bundle-APS-1-no-problems-medication-allergies.html#urn-uuid-0fed5ebe-ca8f-4ad1-aba4-ddad45bd6cc8\">Bundle: identifier = http://system-to-be-defined.com#63fef90a-be11-4ddf-aece-d77da15c4f20; type = document; timestamp = 2024-02-08 14:01:30+0000</a></p><p><b>effective</b>: 2024-02-08 07:34:06+0100</p><p><b>performer</b>: <a href=\"Bundle-APS-2-preventive-medical-checkup.html#urn-uuid-82f802a7-56a9-49b4-a675-95da08f0d7a6\">Bundle: identifier = http://system-to-be-defined.com#63fef90a-be11-4ddf-aece-d77da15c4f20; type = document; timestamp = 2024-02-08 14:01:30+0000</a></p><p><b>value</b>: 54 U/L<span style=\"background: LightGoldenRodYellow\"> (Details: UCUM  codeU/L = 'U/L')</span></p><p><b>specimen</b>: <a href=\"Bundle-APS-2-preventive-medical-checkup.html#urn-uuid-5218bc54-5d55-42fa-aa0c-169b61577ad0\">Bundle: identifier = http://system-to-be-defined.com#63fef90a-be11-4ddf-aece-d77da15c4f20; type = document; timestamp = 2024-02-08 14:01:30+0000</a></p></div>"
      },
      "status" : "final",
      "category" : [{
        "coding" : [{
          "system" : "https://termgit.elga.gv.at/CodeSystem/elga-laborparameterergaenzung",
          "code" : "05180",
          "display" : "Klinische Chemie"
        }]
      },
      {
        "coding" : [{
          "system" : "http://terminology.hl7.org/CodeSystem/observation-category",
          "code" : "laboratory",
          "display" : "Laboratory"
        }]
      }],
      "code" : {
        "coding" : [{
          "system" : "http://loinc.org",
          "code" : "2324-2",
          "display" : "Gamma-GT"
        }]
      },
      "subject" : {
        "reference" : "urn:uuid:0fed5ebe-ca8f-4ad1-aba4-ddad45bd6cc8"
      },
      "effectiveDateTime" : "2024-02-08T07:34:06+01:00",
      "performer" : [{
        "reference" : "urn:uuid:82f802a7-56a9-49b4-a675-95da08f0d7a6"
      }],
      "valueQuantity" : {
        "value" : 54,
        "unit" : "U/L",
        "system" : "http://unitsofmeasure.org",
        "code" : "U/L"
      },
      "specimen" : {
        "reference" : "urn:uuid:5218bc54-5d55-42fa-aa0c-169b61577ad0"
      }
    }
  },
  {
    "fullUrl" : "urn:uuid:b675680e-9469-41b1-adc1-093904e3a1d3",
    "resource" : {
      "resourceType" : "Observation",
      "id" : "APS-2-preventive-medical-checkup-diagnostic-result-15",
      "meta" : {
        "profile" : ["https://fhir.hl7.at/elga/aps/r4/StructureDefinition/at-aps-observationresultslaboratorypathology"]
      },
      "text" : {
        "status" : "generated",
        "div" : "<div xmlns=\"http://www.w3.org/1999/xhtml\"><a name=\"Observation_APS-2-preventive-medical-checkup-diagnostic-result-15\"> </a><p class=\"res-header-id\"><b>Generated Narrative: Observation APS-2-preventive-medical-checkup-diagnostic-result-15</b></p><a name=\"APS-2-preventive-medical-checkup-diagnostic-result-15\"> </a><a name=\"hcAPS-2-preventive-medical-checkup-diagnostic-result-15\"> </a><a name=\"APS-2-preventive-medical-checkup-diagnostic-result-15-de-AT\"> </a><div style=\"display: inline-block; background-color: #d9e0e7; padding: 6px; margin: 4px; border: 1px solid #8da1b4; border-radius: 5px; line-height: 60%\"><p style=\"margin-bottom: 0px\"/><p style=\"margin-bottom: 0px\">Profile: <a href=\"StructureDefinition-at-aps-observationresultslaboratorypathology.html\">AT APS Observation Results Laboratory Pathology</a></p></div><p><b>status</b>: Final</p><p><b>category</b>: <span title=\"Codes:{https://termgit.elga.gv.at/CodeSystem/elga-laborparameterergaenzung 05180}\">Klinische Chemie</span>, <span title=\"Codes:{http://terminology.hl7.org/CodeSystem/observation-category laboratory}\">Laboratory</span></p><p><b>code</b>: <span title=\"Codes:{http://loinc.org 2339-0}\">Glucose [Masse/Volumen] in Blut</span></p><p><b>subject</b>: <a href=\"Bundle-APS-1-no-problems-medication-allergies.html#urn-uuid-0fed5ebe-ca8f-4ad1-aba4-ddad45bd6cc8\">Bundle: identifier = http://system-to-be-defined.com#63fef90a-be11-4ddf-aece-d77da15c4f20; type = document; timestamp = 2024-02-08 14:01:30+0000</a></p><p><b>effective</b>: 2024-02-08 07:34:06+0100</p><p><b>performer</b>: <a href=\"Bundle-APS-2-preventive-medical-checkup.html#urn-uuid-82f802a7-56a9-49b4-a675-95da08f0d7a6\">Bundle: identifier = http://system-to-be-defined.com#63fef90a-be11-4ddf-aece-d77da15c4f20; type = document; timestamp = 2024-02-08 14:01:30+0000</a></p><p><b>value</b>: 112 mg/dL<span style=\"background: LightGoldenRodYellow\"> (Details: UCUM  codemg/dL = 'mg/dL')</span></p><p><b>specimen</b>: <a href=\"Bundle-APS-2-preventive-medical-checkup.html#urn-uuid-5218bc54-5d55-42fa-aa0c-169b61577ad0\">Bundle: identifier = http://system-to-be-defined.com#63fef90a-be11-4ddf-aece-d77da15c4f20; type = document; timestamp = 2024-02-08 14:01:30+0000</a></p></div>"
      },
      "status" : "final",
      "category" : [{
        "coding" : [{
          "system" : "https://termgit.elga.gv.at/CodeSystem/elga-laborparameterergaenzung",
          "code" : "05180",
          "display" : "Klinische Chemie"
        }]
      },
      {
        "coding" : [{
          "system" : "http://terminology.hl7.org/CodeSystem/observation-category",
          "code" : "laboratory",
          "display" : "Laboratory"
        }]
      }],
      "code" : {
        "coding" : [{
          "system" : "http://loinc.org",
          "code" : "2339-0",
          "display" : "Glucose [Masse/Volumen] in Blut"
        }]
      },
      "subject" : {
        "reference" : "urn:uuid:0fed5ebe-ca8f-4ad1-aba4-ddad45bd6cc8"
      },
      "effectiveDateTime" : "2024-02-08T07:34:06+01:00",
      "performer" : [{
        "reference" : "urn:uuid:82f802a7-56a9-49b4-a675-95da08f0d7a6"
      }],
      "valueQuantity" : {
        "value" : 112,
        "unit" : "mg/dL",
        "system" : "http://unitsofmeasure.org",
        "code" : "mg/dL"
      },
      "specimen" : {
        "reference" : "urn:uuid:5218bc54-5d55-42fa-aa0c-169b61577ad0"
      }
    }
  },
  {
    "fullUrl" : "urn:uuid:82f802a7-56a9-49b4-a675-95da08f0d7a6",
    "resource" : {
      "resourceType" : "Organization",
      "id" : "APS-2-preventive-medical-checkup-diagnostic-result-performer-1",
      "meta" : {
        "profile" : ["https://fhir.hl7.at/elga/aps/r4/StructureDefinition/at-aps-organization"]
      },
      "text" : {
        "status" : "generated",
        "div" : "<div xmlns=\"http://www.w3.org/1999/xhtml\"><a name=\"Organization_APS-2-preventive-medical-checkup-diagnostic-result-performer-1\"> </a><p class=\"res-header-id\"><b>Generated Narrative: Organization APS-2-preventive-medical-checkup-diagnostic-result-performer-1</b></p><a name=\"APS-2-preventive-medical-checkup-diagnostic-result-performer-1\"> </a><a name=\"hcAPS-2-preventive-medical-checkup-diagnostic-result-performer-1\"> </a><a name=\"APS-2-preventive-medical-checkup-diagnostic-result-performer-1-de-AT\"> </a><div style=\"display: inline-block; background-color: #d9e0e7; padding: 6px; margin: 4px; border: 1px solid #8da1b4; border-radius: 5px; line-height: 60%\"><p style=\"margin-bottom: 0px\"/><p style=\"margin-bottom: 0px\">Profile: <a href=\"StructureDefinition-at-aps-organization.html\">AT APS Organization</a></p></div><p><b>identifier</b>: <a href=\"http://terminology.hl7.org/6.0.2/NamingSystem-uri.html\" title=\"As defined by RFC 3986 (http://www.ietf.org/rfc/rfc3986.txt)(with many schemes defined in many RFCs). For OIDs and UUIDs, use the URN form (urn:oid:(note: lowercase) and urn:uuid:). See http://www.ietf.org/rfc/rfc3001.txt and http://www.ietf.org/rfc/rfc4122.txt \r\n\r\nThis oid is used as an identifier II.root to indicate the the extension is an absolute URI (technically, an IRI). Typically, this is used for OIDs and GUIDs. Note that when this OID is used with OIDs and GUIDs, the II.extension should start with urn:oid or urn:uuid: \r\n\r\nNote that this OID is created to aid with interconversion between CDA and FHIR - FHIR uses urn:ietf:rfc:3986 as equivalent to this OID. URIs as identifiers appear more commonly in FHIR.\r\n\r\nThis OID may also be used in CD.codeSystem.\">Uniform Resource Identifier (URI)</a>/urn:oid:1.2.40.0.34.99.4613</p><p><b>name</b>: Amadeus Spital - Labor</p><p><b>telecom</b>: <a href=\"tel:+43.1.3453446.0\">+43.1.3453446.0</a>, fax: +43.1.3453446.4674, <a href=\"mailto:info@amadeusspital.at\">info@amadeusspital.at</a>, <a href=\"https://www.amadeusspital.at\">https://www.amadeusspital.at</a></p><p><b>address</b>: Währinger Gürtel 18-20 Wien 1090 AUT </p></div>"
      },
      "identifier" : [{
        "system" : "urn:ietf:rfc:3986",
        "value" : "urn:oid:1.2.40.0.34.99.4613",
        "assigner" : {
          "display" : "Bundesministerium für Gesundheit"
        }
      }],
      "name" : "Amadeus Spital - Labor",
      "telecom" : [{
        "system" : "phone",
        "value" : "+43.1.3453446.0"
      },
      {
        "system" : "fax",
        "value" : "+43.1.3453446.4674"
      },
      {
        "system" : "email",
        "value" : "info@amadeusspital.at"
      },
      {
        "system" : "url",
        "value" : "https://www.amadeusspital.at"
      }],
      "address" : [{
        "line" : ["Währinger Gürtel 18-20"],
        "city" : "Wien",
        "postalCode" : "1090",
        "country" : "AUT"
      }]
    }
  },
  {
    "fullUrl" : "urn:uuid:74c5e186-d765-4c93-a624-c9b0746e8142",
    "resource" : {
      "resourceType" : "Observation",
      "id" : "APS-2-preventive-medical-checkup-vital-sign-1",
      "meta" : {
        "profile" : ["https://fhir.hl7.at/elga/aps/r4/StructureDefinition/at-aps-observationvitalsigns"]
      },
      "text" : {
        "status" : "generated",
        "div" : "<div xmlns=\"http://www.w3.org/1999/xhtml\"><a name=\"Observation_APS-2-preventive-medical-checkup-vital-sign-1\"> </a><p class=\"res-header-id\"><b>Generated Narrative: Observation APS-2-preventive-medical-checkup-vital-sign-1</b></p><a name=\"APS-2-preventive-medical-checkup-vital-sign-1\"> </a><a name=\"hcAPS-2-preventive-medical-checkup-vital-sign-1\"> </a><a name=\"APS-2-preventive-medical-checkup-vital-sign-1-de-AT\"> </a><div style=\"display: inline-block; background-color: #d9e0e7; padding: 6px; margin: 4px; border: 1px solid #8da1b4; border-radius: 5px; line-height: 60%\"><p style=\"margin-bottom: 0px\"/><p style=\"margin-bottom: 0px\">Profile: <a href=\"StructureDefinition-at-aps-observationvitalsigns.html\">AT APS Observation Vital Signs</a></p></div><p><b>status</b>: Final</p><p><b>category</b>: <span title=\"Codes:{http://terminology.hl7.org/CodeSystem/observation-category vital-signs}\">Vital Signs</span></p><p><b>code</b>: <span title=\"Codes:{http://loinc.org 8302-2}\">Körpergröße</span></p><p><b>subject</b>: <a href=\"Bundle-APS-1-no-problems-medication-allergies.html#urn-uuid-0fed5ebe-ca8f-4ad1-aba4-ddad45bd6cc8\">Bundle: identifier = http://system-to-be-defined.com#63fef90a-be11-4ddf-aece-d77da15c4f20; type = document; timestamp = 2024-02-08 14:01:30+0000</a></p><p><b>effective</b>: 2024-02-08 08:30:00+0100</p><p><b>performer</b>: <a href=\"Bundle-APS-2-preventive-medical-checkup.html#urn-uuid-82f802a7-56a9-49b4-a675-95da08f0d7a6\">Bundle: identifier = http://system-to-be-defined.com#63fef90a-be11-4ddf-aece-d77da15c4f20; type = document; timestamp = 2024-02-08 14:01:30+0000</a></p><p><b>value</b>: 173 cm<span style=\"background: LightGoldenRodYellow\"> (Details: UCUM  codecm = 'cm')</span></p></div>"
      },
      "status" : "final",
      "category" : [{
        "coding" : [{
          "system" : "http://terminology.hl7.org/CodeSystem/observation-category",
          "code" : "vital-signs",
          "display" : "Vital Signs"
        }]
      }],
      "code" : {
        "coding" : [{
          "system" : "http://loinc.org",
          "code" : "8302-2",
          "display" : "Körpergröße"
        }]
      },
      "subject" : {
        "reference" : "urn:uuid:0fed5ebe-ca8f-4ad1-aba4-ddad45bd6cc8"
      },
      "effectiveDateTime" : "2024-02-08T08:30:00+01:00",
      "performer" : [{
        "reference" : "urn:uuid:82f802a7-56a9-49b4-a675-95da08f0d7a6"
      }],
      "valueQuantity" : {
        "value" : 173,
        "unit" : "cm",
        "system" : "http://unitsofmeasure.org",
        "code" : "cm"
      }
    }
  },
  {
    "fullUrl" : "urn:uuid:428259da-e0f7-4780-b1e3-c177515edd37",
    "resource" : {
      "resourceType" : "Observation",
      "id" : "APS-2-preventive-medical-checkup-vital-sign-2",
      "meta" : {
        "profile" : ["https://fhir.hl7.at/elga/aps/r4/StructureDefinition/at-aps-observationvitalsigns"]
      },
      "text" : {
        "status" : "generated",
        "div" : "<div xmlns=\"http://www.w3.org/1999/xhtml\"><a name=\"Observation_APS-2-preventive-medical-checkup-vital-sign-2\"> </a><p class=\"res-header-id\"><b>Generated Narrative: Observation APS-2-preventive-medical-checkup-vital-sign-2</b></p><a name=\"APS-2-preventive-medical-checkup-vital-sign-2\"> </a><a name=\"hcAPS-2-preventive-medical-checkup-vital-sign-2\"> </a><a name=\"APS-2-preventive-medical-checkup-vital-sign-2-de-AT\"> </a><div style=\"display: inline-block; background-color: #d9e0e7; padding: 6px; margin: 4px; border: 1px solid #8da1b4; border-radius: 5px; line-height: 60%\"><p style=\"margin-bottom: 0px\"/><p style=\"margin-bottom: 0px\">Profile: <a href=\"StructureDefinition-at-aps-observationvitalsigns.html\">AT APS Observation Vital Signs</a></p></div><p><b>status</b>: Final</p><p><b>category</b>: <span title=\"Codes:{http://terminology.hl7.org/CodeSystem/observation-category vital-signs}\">Vital Signs</span></p><p><b>code</b>: <span title=\"Codes:{http://loinc.org 29463-7}\">Körpergewicht</span></p><p><b>subject</b>: <a href=\"Bundle-APS-1-no-problems-medication-allergies.html#urn-uuid-0fed5ebe-ca8f-4ad1-aba4-ddad45bd6cc8\">Bundle: identifier = http://system-to-be-defined.com#63fef90a-be11-4ddf-aece-d77da15c4f20; type = document; timestamp = 2024-02-08 14:01:30+0000</a></p><p><b>effective</b>: 2024-02-08 08:30:00+0100</p><p><b>performer</b>: <a href=\"Bundle-APS-2-preventive-medical-checkup.html#urn-uuid-82f802a7-56a9-49b4-a675-95da08f0d7a6\">Bundle: identifier = http://system-to-be-defined.com#63fef90a-be11-4ddf-aece-d77da15c4f20; type = document; timestamp = 2024-02-08 14:01:30+0000</a></p><p><b>value</b>: 68 kg<span style=\"background: LightGoldenRodYellow\"> (Details: UCUM  codekg = 'kg')</span></p></div>"
      },
      "status" : "final",
      "category" : [{
        "coding" : [{
          "system" : "http://terminology.hl7.org/CodeSystem/observation-category",
          "code" : "vital-signs",
          "display" : "Vital Signs"
        }]
      }],
      "code" : {
        "coding" : [{
          "system" : "http://loinc.org",
          "code" : "29463-7",
          "display" : "Körpergewicht"
        }]
      },
      "subject" : {
        "reference" : "urn:uuid:0fed5ebe-ca8f-4ad1-aba4-ddad45bd6cc8"
      },
      "effectiveDateTime" : "2024-02-08T08:30:00+01:00",
      "performer" : [{
        "reference" : "urn:uuid:82f802a7-56a9-49b4-a675-95da08f0d7a6"
      }],
      "valueQuantity" : {
        "value" : 68,
        "unit" : "kg",
        "system" : "http://unitsofmeasure.org",
        "code" : "kg"
      }
    }
  },
  {
    "fullUrl" : "urn:uuid:daf9c15d-14d4-429c-b658-6842fdff67d8",
    "resource" : {
      "resourceType" : "Observation",
      "id" : "APS-2-preventive-medical-checkup-vital-sign-3",
      "meta" : {
        "profile" : ["https://fhir.hl7.at/elga/aps/r4/StructureDefinition/at-aps-observationvitalsigns"]
      },
      "text" : {
        "status" : "generated",
        "div" : "<div xmlns=\"http://www.w3.org/1999/xhtml\"><a name=\"Observation_APS-2-preventive-medical-checkup-vital-sign-3\"> </a><p class=\"res-header-id\"><b>Generated Narrative: Observation APS-2-preventive-medical-checkup-vital-sign-3</b></p><a name=\"APS-2-preventive-medical-checkup-vital-sign-3\"> </a><a name=\"hcAPS-2-preventive-medical-checkup-vital-sign-3\"> </a><a name=\"APS-2-preventive-medical-checkup-vital-sign-3-de-AT\"> </a><div style=\"display: inline-block; background-color: #d9e0e7; padding: 6px; margin: 4px; border: 1px solid #8da1b4; border-radius: 5px; line-height: 60%\"><p style=\"margin-bottom: 0px\"/><p style=\"margin-bottom: 0px\">Profile: <a href=\"StructureDefinition-at-aps-observationvitalsigns.html\">AT APS Observation Vital Signs</a></p></div><p><b>status</b>: Final</p><p><b>category</b>: <span title=\"Codes:{http://terminology.hl7.org/CodeSystem/observation-category vital-signs}\">Vital Signs</span></p><p><b>code</b>: <span title=\"Codes:{http://loinc.org 39156-5}\">Body Mass Index (BMI) [Verhältnis]</span></p><p><b>subject</b>: <a href=\"Bundle-APS-1-no-problems-medication-allergies.html#urn-uuid-0fed5ebe-ca8f-4ad1-aba4-ddad45bd6cc8\">Bundle: identifier = http://system-to-be-defined.com#63fef90a-be11-4ddf-aece-d77da15c4f20; type = document; timestamp = 2024-02-08 14:01:30+0000</a></p><p><b>effective</b>: 2024-02-08 08:30:00+0100</p><p><b>performer</b>: <a href=\"Bundle-APS-2-preventive-medical-checkup.html#urn-uuid-82f802a7-56a9-49b4-a675-95da08f0d7a6\">Bundle: identifier = http://system-to-be-defined.com#63fef90a-be11-4ddf-aece-d77da15c4f20; type = document; timestamp = 2024-02-08 14:01:30+0000</a></p><p><b>value</b>: 22.72 kg/m2<span style=\"background: LightGoldenRodYellow\"> (Details: UCUM  codekg/m2 = 'kg/m2')</span></p><p><b>interpretation</b>: <span title=\"Codes:{http://terminology.hl7.org/CodeSystem/v3-ObservationInterpretation H}\">High</span></p></div>"
      },
      "status" : "final",
      "category" : [{
        "coding" : [{
          "system" : "http://terminology.hl7.org/CodeSystem/observation-category",
          "code" : "vital-signs",
          "display" : "Vital Signs"
        }]
      }],
      "code" : {
        "coding" : [{
          "system" : "http://loinc.org",
          "code" : "39156-5",
          "display" : "Body Mass Index (BMI) [Verhältnis]"
        }]
      },
      "subject" : {
        "reference" : "urn:uuid:0fed5ebe-ca8f-4ad1-aba4-ddad45bd6cc8"
      },
      "effectiveDateTime" : "2024-02-08T08:30:00+01:00",
      "performer" : [{
        "reference" : "urn:uuid:82f802a7-56a9-49b4-a675-95da08f0d7a6"
      }],
      "valueQuantity" : {
        "value" : 22.72,
        "unit" : "kg/m2",
        "system" : "http://unitsofmeasure.org",
        "code" : "kg/m2"
      },
      "interpretation" : [{
        "coding" : [{
          "system" : "http://terminology.hl7.org/CodeSystem/v3-ObservationInterpretation",
          "code" : "H",
          "display" : "High"
        }]
      }]
    }
  },
  {
    "fullUrl" : "urn:uuid:8248cc70-65a2-4d37-ae14-a3ef2abf8f32",
    "resource" : {
      "resourceType" : "Observation",
      "id" : "APS-2-preventive-medical-checkup-vital-sign-4",
      "meta" : {
        "profile" : ["https://fhir.hl7.at/elga/aps/r4/StructureDefinition/at-aps-observationvitalsigns"]
      },
      "text" : {
        "status" : "generated",
        "div" : "<div xmlns=\"http://www.w3.org/1999/xhtml\"><a name=\"Observation_APS-2-preventive-medical-checkup-vital-sign-4\"> </a><p class=\"res-header-id\"><b>Generated Narrative: Observation APS-2-preventive-medical-checkup-vital-sign-4</b></p><a name=\"APS-2-preventive-medical-checkup-vital-sign-4\"> </a><a name=\"hcAPS-2-preventive-medical-checkup-vital-sign-4\"> </a><a name=\"APS-2-preventive-medical-checkup-vital-sign-4-de-AT\"> </a><div style=\"display: inline-block; background-color: #d9e0e7; padding: 6px; margin: 4px; border: 1px solid #8da1b4; border-radius: 5px; line-height: 60%\"><p style=\"margin-bottom: 0px\"/><p style=\"margin-bottom: 0px\">Profile: <a href=\"StructureDefinition-at-aps-observationvitalsigns.html\">AT APS Observation Vital Signs</a></p></div><p><b>status</b>: Final</p><p><b>category</b>: <span title=\"Codes:{http://terminology.hl7.org/CodeSystem/observation-category vital-signs}\">Vital Signs</span></p><p><b>code</b>: <span title=\"Codes:{http://loinc.org 85354-9}\">Blood pressure panel with all children optional</span></p><p><b>subject</b>: <a href=\"Bundle-APS-1-no-problems-medication-allergies.html#urn-uuid-0fed5ebe-ca8f-4ad1-aba4-ddad45bd6cc8\">Bundle: identifier = http://system-to-be-defined.com#63fef90a-be11-4ddf-aece-d77da15c4f20; type = document; timestamp = 2024-02-08 14:01:30+0000</a></p><p><b>effective</b>: 2024-02-08 08:30:00+0100</p><p><b>performer</b>: <a href=\"Bundle-APS-2-preventive-medical-checkup.html#urn-uuid-82f802a7-56a9-49b4-a675-95da08f0d7a6\">Bundle: identifier = http://system-to-be-defined.com#63fef90a-be11-4ddf-aece-d77da15c4f20; type = document; timestamp = 2024-02-08 14:01:30+0000</a></p><blockquote><p><b>component</b></p><p><b>code</b>: <span title=\"Codes:{http://loinc.org 8480-6}\">Systolischer Blutdruck</span></p><p><b>value</b>: 130 mm[Hg]<span style=\"background: LightGoldenRodYellow\"> (Details: UCUM  codemm[Hg] = 'mm[Hg]')</span></p></blockquote><blockquote><p><b>component</b></p><p><b>code</b>: <span title=\"Codes:{http://loinc.org 8462-4}\">Diastolischer Blutdruck</span></p><p><b>value</b>: 80 mm[Hg]<span style=\"background: LightGoldenRodYellow\"> (Details: UCUM  codemm[Hg] = 'mm[Hg]')</span></p></blockquote></div>"
      },
      "status" : "final",
      "category" : [{
        "coding" : [{
          "system" : "http://terminology.hl7.org/CodeSystem/observation-category",
          "code" : "vital-signs",
          "display" : "Vital Signs"
        }]
      }],
      "code" : {
        "coding" : [{
          "system" : "http://loinc.org",
          "code" : "85354-9",
          "display" : "Blood pressure panel with all children optional"
        }]
      },
      "subject" : {
        "reference" : "urn:uuid:0fed5ebe-ca8f-4ad1-aba4-ddad45bd6cc8"
      },
      "effectiveDateTime" : "2024-02-08T08:30:00+01:00",
      "performer" : [{
        "reference" : "urn:uuid:82f802a7-56a9-49b4-a675-95da08f0d7a6"
      }],
      "component" : [{
        "code" : {
          "coding" : [{
            "system" : "http://loinc.org",
            "code" : "8480-6",
            "display" : "Systolischer Blutdruck"
          }]
        },
        "valueQuantity" : {
          "value" : 130,
          "unit" : "mm[Hg]",
          "system" : "http://unitsofmeasure.org",
          "code" : "mm[Hg]"
        }
      },
      {
        "code" : {
          "coding" : [{
            "system" : "http://loinc.org",
            "code" : "8462-4",
            "display" : "Diastolischer Blutdruck"
          }]
        },
        "valueQuantity" : {
          "value" : 80,
          "unit" : "mm[Hg]",
          "system" : "http://unitsofmeasure.org",
          "code" : "mm[Hg]"
        }
      }]
    }
  },
  {
    "fullUrl" : "urn:uuid:4d3f7ac4-fd0a-49af-a56b-303a2dbe67d1",
    "resource" : {
      "resourceType" : "Observation",
      "id" : "APS-2-preventive-medical-checkup-vital-sign-5",
      "meta" : {
        "profile" : ["https://fhir.hl7.at/elga/aps/r4/StructureDefinition/at-aps-observationvitalsigns"]
      },
      "text" : {
        "status" : "generated",
        "div" : "<div xmlns=\"http://www.w3.org/1999/xhtml\"><a name=\"Observation_APS-2-preventive-medical-checkup-vital-sign-5\"> </a><p class=\"res-header-id\"><b>Generated Narrative: Observation APS-2-preventive-medical-checkup-vital-sign-5</b></p><a name=\"APS-2-preventive-medical-checkup-vital-sign-5\"> </a><a name=\"hcAPS-2-preventive-medical-checkup-vital-sign-5\"> </a><a name=\"APS-2-preventive-medical-checkup-vital-sign-5-de-AT\"> </a><div style=\"display: inline-block; background-color: #d9e0e7; padding: 6px; margin: 4px; border: 1px solid #8da1b4; border-radius: 5px; line-height: 60%\"><p style=\"margin-bottom: 0px\"/><p style=\"margin-bottom: 0px\">Profile: <a href=\"StructureDefinition-at-aps-observationvitalsigns.html\">AT APS Observation Vital Signs</a></p></div><p><b>status</b>: Final</p><p><b>category</b>: <span title=\"Codes:{http://terminology.hl7.org/CodeSystem/observation-category vital-signs}\">Vital Signs</span></p><p><b>code</b>: <span title=\"Codes:{http://loinc.org 8867-4}\">Herzfrequenz</span></p><p><b>subject</b>: <a href=\"Bundle-APS-1-no-problems-medication-allergies.html#urn-uuid-0fed5ebe-ca8f-4ad1-aba4-ddad45bd6cc8\">Bundle: identifier = http://system-to-be-defined.com#63fef90a-be11-4ddf-aece-d77da15c4f20; type = document; timestamp = 2024-02-08 14:01:30+0000</a></p><p><b>effective</b>: 2024-02-08 08:30:00+0100</p><p><b>performer</b>: <a href=\"Bundle-APS-2-preventive-medical-checkup.html#urn-uuid-82f802a7-56a9-49b4-a675-95da08f0d7a6\">Bundle: identifier = http://system-to-be-defined.com#63fef90a-be11-4ddf-aece-d77da15c4f20; type = document; timestamp = 2024-02-08 14:01:30+0000</a></p><p><b>value</b>: 85 /min<span style=\"background: LightGoldenRodYellow\"> (Details: UCUM  code/min = '/min')</span></p></div>"
      },
      "status" : "final",
      "category" : [{
        "coding" : [{
          "system" : "http://terminology.hl7.org/CodeSystem/observation-category",
          "code" : "vital-signs",
          "display" : "Vital Signs"
        }]
      }],
      "code" : {
        "coding" : [{
          "system" : "http://loinc.org",
          "code" : "8867-4",
          "display" : "Herzfrequenz"
        }]
      },
      "subject" : {
        "reference" : "urn:uuid:0fed5ebe-ca8f-4ad1-aba4-ddad45bd6cc8"
      },
      "effectiveDateTime" : "2024-02-08T08:30:00+01:00",
      "performer" : [{
        "reference" : "urn:uuid:82f802a7-56a9-49b4-a675-95da08f0d7a6"
      }],
      "valueQuantity" : {
        "value" : 85,
        "unit" : "/min",
        "system" : "http://unitsofmeasure.org",
        "code" : "/min"
      }
    }
  },
  {
    "fullUrl" : "urn:uuid:be35e603-6b99-4bb5-ad70-8499f6b55df1",
    "resource" : {
      "resourceType" : "Observation",
      "id" : "APS-2-preventive-medical-checkup-vital-sign-6",
      "meta" : {
        "profile" : ["https://fhir.hl7.at/elga/aps/r4/StructureDefinition/at-aps-observationvitalsigns"]
      },
      "text" : {
        "status" : "generated",
        "div" : "<div xmlns=\"http://www.w3.org/1999/xhtml\"><a name=\"Observation_APS-2-preventive-medical-checkup-vital-sign-6\"> </a><p class=\"res-header-id\"><b>Generated Narrative: Observation APS-2-preventive-medical-checkup-vital-sign-6</b></p><a name=\"APS-2-preventive-medical-checkup-vital-sign-6\"> </a><a name=\"hcAPS-2-preventive-medical-checkup-vital-sign-6\"> </a><a name=\"APS-2-preventive-medical-checkup-vital-sign-6-de-AT\"> </a><div style=\"display: inline-block; background-color: #d9e0e7; padding: 6px; margin: 4px; border: 1px solid #8da1b4; border-radius: 5px; line-height: 60%\"><p style=\"margin-bottom: 0px\"/><p style=\"margin-bottom: 0px\">Profile: <a href=\"StructureDefinition-at-aps-observationvitalsigns.html\">AT APS Observation Vital Signs</a></p></div><p><b>status</b>: Final</p><p><b>category</b>: <span title=\"Codes:{http://terminology.hl7.org/CodeSystem/observation-category vital-signs}\">Vital Signs</span></p><p><b>code</b>: <span title=\"Codes:{http://snomed.info/sct 276361009}\">Waist circumference</span></p><p><b>subject</b>: <a href=\"Bundle-APS-1-no-problems-medication-allergies.html#urn-uuid-0fed5ebe-ca8f-4ad1-aba4-ddad45bd6cc8\">Bundle: identifier = http://system-to-be-defined.com#63fef90a-be11-4ddf-aece-d77da15c4f20; type = document; timestamp = 2024-02-08 14:01:30+0000</a></p><p><b>effective</b>: 2024-02-08 08:30:00+0100</p><p><b>performer</b>: <a href=\"Bundle-APS-2-preventive-medical-checkup.html#urn-uuid-82f802a7-56a9-49b4-a675-95da08f0d7a6\">Bundle: identifier = http://system-to-be-defined.com#63fef90a-be11-4ddf-aece-d77da15c4f20; type = document; timestamp = 2024-02-08 14:01:30+0000</a></p><p><b>value</b>: &lt;102 cm<span style=\"background: LightGoldenRodYellow\"> (Details: UCUM  codecm = 'cm')</span></p></div>"
      },
      "status" : "final",
      "category" : [{
        "coding" : [{
          "system" : "http://terminology.hl7.org/CodeSystem/observation-category",
          "code" : "vital-signs",
          "display" : "Vital Signs"
        }]
      }],
      "code" : {
        "coding" : [{
          "system" : "http://snomed.info/sct",
          "code" : "276361009",
          "display" : "Waist circumference"
        }]
      },
      "subject" : {
        "reference" : "urn:uuid:0fed5ebe-ca8f-4ad1-aba4-ddad45bd6cc8"
      },
      "effectiveDateTime" : "2024-02-08T08:30:00+01:00",
      "performer" : [{
        "reference" : "urn:uuid:82f802a7-56a9-49b4-a675-95da08f0d7a6"
      }],
      "valueQuantity" : {
        "value" : 102,
        "comparator" : "<",
        "unit" : "cm",
        "system" : "http://unitsofmeasure.org",
        "code" : "cm"
      }
    }
  },
  {
    "fullUrl" : "urn:uuid:82301518-66ca-4b4c-821d-087adf643cc4",
    "resource" : {
      "resourceType" : "Condition",
      "id" : "APS-2-preventive-medical-checkup-illness-history-1",
      "meta" : {
        "profile" : ["https://fhir.hl7.at/elga/aps/r4/StructureDefinition/at-aps-condition"]
      },
      "text" : {
        "status" : "generated",
        "div" : "<div xmlns=\"http://www.w3.org/1999/xhtml\"><a name=\"Condition_APS-2-preventive-medical-checkup-illness-history-1\"> </a><p class=\"res-header-id\"><b>Generated Narrative: Condition APS-2-preventive-medical-checkup-illness-history-1</b></p><a name=\"APS-2-preventive-medical-checkup-illness-history-1\"> </a><a name=\"hcAPS-2-preventive-medical-checkup-illness-history-1\"> </a><a name=\"APS-2-preventive-medical-checkup-illness-history-1-de-AT\"> </a><div style=\"display: inline-block; background-color: #d9e0e7; padding: 6px; margin: 4px; border: 1px solid #8da1b4; border-radius: 5px; line-height: 60%\"><p style=\"margin-bottom: 0px\"/><p style=\"margin-bottom: 0px\">Profile: <a href=\"StructureDefinition-at-aps-condition.html\">AT APS Condition</a></p></div><p><b>clinicalStatus</b>: <span title=\"Codes:{http://terminology.hl7.org/CodeSystem/condition-clinical resolved}\">Resolved</span></p><p><b>verificationStatus</b>: <span title=\"Codes:{http://terminology.hl7.org/CodeSystem/condition-ver-status confirmed}\">Confirmed</span></p><p><b>category</b>: <span title=\"Codes:{http://terminology.hl7.org/CodeSystem/condition-category problem-list-item}\">Problem List Item</span></p><p><b>code</b>: <span title=\"Codes:{http://snomed.info/sct 161419000}\">History of measles</span></p><p><b>subject</b>: <a href=\"Bundle-APS-1-no-problems-medication-allergies.html#urn-uuid-0fed5ebe-ca8f-4ad1-aba4-ddad45bd6cc8\">Bundle: identifier = http://system-to-be-defined.com#63fef90a-be11-4ddf-aece-d77da15c4f20; type = document; timestamp = 2024-02-08 14:01:30+0000</a></p></div>"
      },
      "clinicalStatus" : {
        "coding" : [{
          "system" : "http://terminology.hl7.org/CodeSystem/condition-clinical",
          "code" : "resolved",
          "display" : "Resolved"
        }]
      },
      "verificationStatus" : {
        "coding" : [{
          "system" : "http://terminology.hl7.org/CodeSystem/condition-ver-status",
          "code" : "confirmed",
          "display" : "Confirmed"
        }]
      },
      "category" : [{
        "coding" : [{
          "system" : "http://terminology.hl7.org/CodeSystem/condition-category",
          "code" : "problem-list-item",
          "display" : "Problem List Item"
        }]
      }],
      "code" : {
        "coding" : [{
          "system" : "http://snomed.info/sct",
          "code" : "161419000",
          "display" : "History of measles"
        }]
      },
      "subject" : {
        "reference" : "urn:uuid:0fed5ebe-ca8f-4ad1-aba4-ddad45bd6cc8"
      }
    }
  },
  {
    "fullUrl" : "urn:uuid:ce2589a2-a5e5-4520-808f-8118e2863a95",
    "resource" : {
      "resourceType" : "Condition",
      "id" : "APS-2-preventive-medical-checkup-illness-history-2",
      "meta" : {
        "profile" : ["https://fhir.hl7.at/elga/aps/r4/StructureDefinition/at-aps-condition"]
      },
      "text" : {
        "status" : "generated",
        "div" : "<div xmlns=\"http://www.w3.org/1999/xhtml\"><a name=\"Condition_APS-2-preventive-medical-checkup-illness-history-2\"> </a><p class=\"res-header-id\"><b>Generated Narrative: Condition APS-2-preventive-medical-checkup-illness-history-2</b></p><a name=\"APS-2-preventive-medical-checkup-illness-history-2\"> </a><a name=\"hcAPS-2-preventive-medical-checkup-illness-history-2\"> </a><a name=\"APS-2-preventive-medical-checkup-illness-history-2-de-AT\"> </a><div style=\"display: inline-block; background-color: #d9e0e7; padding: 6px; margin: 4px; border: 1px solid #8da1b4; border-radius: 5px; line-height: 60%\"><p style=\"margin-bottom: 0px\"/><p style=\"margin-bottom: 0px\">Profile: <a href=\"StructureDefinition-at-aps-condition.html\">AT APS Condition</a></p></div><p><b>clinicalStatus</b>: <span title=\"Codes:{http://terminology.hl7.org/CodeSystem/condition-clinical resolved}\">Resolved</span></p><p><b>verificationStatus</b>: <span title=\"Codes:{http://terminology.hl7.org/CodeSystem/condition-ver-status confirmed}\">Confirmed</span></p><p><b>category</b>: <span title=\"Codes:{http://terminology.hl7.org/CodeSystem/condition-category problem-list-item}\">Problem List Item</span></p><p><b>code</b>: <span title=\"Codes:{http://snomed.info/sct 161423008}\">History of chickenpox (situation)</span></p><p><b>subject</b>: <a href=\"Bundle-APS-1-no-problems-medication-allergies.html#urn-uuid-0fed5ebe-ca8f-4ad1-aba4-ddad45bd6cc8\">Bundle: identifier = http://system-to-be-defined.com#63fef90a-be11-4ddf-aece-d77da15c4f20; type = document; timestamp = 2024-02-08 14:01:30+0000</a></p></div>"
      },
      "clinicalStatus" : {
        "coding" : [{
          "system" : "http://terminology.hl7.org/CodeSystem/condition-clinical",
          "code" : "resolved",
          "display" : "Resolved"
        }]
      },
      "verificationStatus" : {
        "coding" : [{
          "system" : "http://terminology.hl7.org/CodeSystem/condition-ver-status",
          "code" : "confirmed",
          "display" : "Confirmed"
        }]
      },
      "category" : [{
        "coding" : [{
          "system" : "http://terminology.hl7.org/CodeSystem/condition-category",
          "code" : "problem-list-item",
          "display" : "Problem List Item"
        }]
      }],
      "code" : {
        "coding" : [{
          "system" : "http://snomed.info/sct",
          "code" : "161423008",
          "display" : "History of chickenpox (situation)"
        }]
      },
      "subject" : {
        "reference" : "urn:uuid:0fed5ebe-ca8f-4ad1-aba4-ddad45bd6cc8"
      }
    }
  },
  {
    "fullUrl" : "urn:uuid:d0a5bbf1-6d01-4d44-bac5-05f12c98411e",
    "resource" : {
      "resourceType" : "Observation",
      "id" : "APS-2-preventive-medical-checkup-social-history-1",
      "meta" : {
        "profile" : ["https://fhir.hl7.at/elga/aps/r4/StructureDefinition/at-aps-observationtobaccouse"]
      },
      "text" : {
        "status" : "generated",
        "div" : "<div xmlns=\"http://www.w3.org/1999/xhtml\"><a name=\"Observation_APS-2-preventive-medical-checkup-social-history-1\"> </a><p class=\"res-header-id\"><b>Generated Narrative: Observation APS-2-preventive-medical-checkup-social-history-1</b></p><a name=\"APS-2-preventive-medical-checkup-social-history-1\"> </a><a name=\"hcAPS-2-preventive-medical-checkup-social-history-1\"> </a><a name=\"APS-2-preventive-medical-checkup-social-history-1-de-AT\"> </a><div style=\"display: inline-block; background-color: #d9e0e7; padding: 6px; margin: 4px; border: 1px solid #8da1b4; border-radius: 5px; line-height: 60%\"><p style=\"margin-bottom: 0px\"/><p style=\"margin-bottom: 0px\">Profile: <a href=\"StructureDefinition-at-aps-observationtobaccouse.html\">AT APS Observation Tobacco Use</a></p></div><p><b>status</b>: Final</p><p><b>code</b>: <span title=\"Codes:{http://loinc.org 72166-2}\">Tobacco smoking status</span></p><p><b>subject</b>: <a href=\"Bundle-APS-1-no-problems-medication-allergies.html#urn-uuid-0fed5ebe-ca8f-4ad1-aba4-ddad45bd6cc8\">Bundle: identifier = http://system-to-be-defined.com#63fef90a-be11-4ddf-aece-d77da15c4f20; type = document; timestamp = 2024-02-08 14:01:30+0000</a></p><p><b>effective</b>: 2024-02-08 08:30:00+0100</p><p><b>performer</b>: <a href=\"Bundle-APS-2-preventive-medical-checkup.html#urn-uuid-82f802a7-56a9-49b4-a675-95da08f0d7a6\">Bundle: identifier = http://system-to-be-defined.com#63fef90a-be11-4ddf-aece-d77da15c4f20; type = document; timestamp = 2024-02-08 14:01:30+0000</a></p><p><b>value</b>: <span title=\"Codes:{https://termgit.elga.gv.at/CodeSystem/snomed-ct-auszug 266919005}\">Never smoked tobacco</span></p></div>"
      },
      "status" : "final",
      "code" : {
        "coding" : [{
          "system" : "http://loinc.org",
          "code" : "72166-2",
          "display" : "Tobacco smoking status"
        }]
      },
      "subject" : {
        "reference" : "urn:uuid:0fed5ebe-ca8f-4ad1-aba4-ddad45bd6cc8"
      },
      "effectiveDateTime" : "2024-02-08T08:30:00+01:00",
      "performer" : [{
        "reference" : "urn:uuid:82f802a7-56a9-49b4-a675-95da08f0d7a6"
      }],
      "valueCodeableConcept" : {
        "coding" : [{
          "system" : "https://termgit.elga.gv.at/CodeSystem/snomed-ct-auszug",
          "code" : "266919005",
          "display" : "Never smoked tobacco"
        }]
      }
    }
  },
  {
    "fullUrl" : "urn:uuid:9add5c32-1ded-43d6-b163-c3fe13f94984",
    "resource" : {
      "resourceType" : "Observation",
      "id" : "APS-2-preventive-medical-checkup-social-history-2",
      "text" : {
        "status" : "generated",
        "div" : "<div xmlns=\"http://www.w3.org/1999/xhtml\"><a name=\"Observation_APS-2-preventive-medical-checkup-social-history-2\"> </a><p class=\"res-header-id\"><b>Generated Narrative: Observation APS-2-preventive-medical-checkup-social-history-2</b></p><a name=\"APS-2-preventive-medical-checkup-social-history-2\"> </a><a name=\"hcAPS-2-preventive-medical-checkup-social-history-2\"> </a><a name=\"APS-2-preventive-medical-checkup-social-history-2-de-AT\"> </a><p><b>status</b>: Final</p><p><b>code</b>: <span title=\"Codes:{http://snomed.info/sct 61686008}\">Physical exercise</span></p><p><b>subject</b>: <a href=\"Bundle-APS-1-no-problems-medication-allergies.html#urn-uuid-0fed5ebe-ca8f-4ad1-aba4-ddad45bd6cc8\">Bundle: identifier = http://system-to-be-defined.com#63fef90a-be11-4ddf-aece-d77da15c4f20; type = document; timestamp = 2024-02-08 14:01:30+0000</a></p><p><b>effective</b>: 2024-02-08 08:30:00+0100</p><p><b>performer</b>: <a href=\"Bundle-APS-2-preventive-medical-checkup.html#urn-uuid-82f802a7-56a9-49b4-a675-95da08f0d7a6\">Bundle: identifier = http://system-to-be-defined.com#63fef90a-be11-4ddf-aece-d77da15c4f20; type = document; timestamp = 2024-02-08 14:01:30+0000</a></p><p><b>value</b>: &gt;2.5 h<span style=\"background: LightGoldenRodYellow\"> (Details: UCUM  codeh = 'h')</span>/1 wk<span style=\"background: LightGoldenRodYellow\"> (Details: UCUM  codewk = 'wk')</span></p></div>"
      },
      "status" : "final",
      "code" : {
        "coding" : [{
          "system" : "http://snomed.info/sct",
          "code" : "61686008",
          "display" : "Physical exercise"
        }]
      },
      "subject" : {
        "reference" : "urn:uuid:0fed5ebe-ca8f-4ad1-aba4-ddad45bd6cc8"
      },
      "effectiveDateTime" : "2024-02-08T08:30:00+01:00",
      "performer" : [{
        "reference" : "urn:uuid:82f802a7-56a9-49b4-a675-95da08f0d7a6"
      }],
      "valueRatio" : {
        "numerator" : {
          "value" : 2.5,
          "comparator" : ">",
          "unit" : "h",
          "system" : "http://unitsofmeasure.org",
          "code" : "h"
        },
        "denominator" : {
          "value" : 1,
          "unit" : "wk",
          "system" : "http://unitsofmeasure.org",
          "code" : "wk"
        }
      }
    }
  }]
}