{
  "resourceType" : "Bundle",
  "id" : "APS-1-no-problems-medication-allergies",
  "meta" : {
    "profile" : ["https://fhir.hl7.at/elga/aps/r4/StructureDefinition/at-aps-bundle"]
  },
  "identifier" : {
    "system" : "http://system-to-be-defined.com",
    "value" : "63fef90a-be11-4ddf-aece-d77da15c4f20"
  },
  "type" : "document",
  "timestamp" : "2024-02-08T14:01:30+00:00",
  "entry" : [{
    "fullUrl" : "urn:uuid:212fdc76-ccc3-40bf-8cdd-82f2ef88bd7b",
    "resource" : {
      "resourceType" : "Composition",
      "id" : "APS-1-no-problems-medication-allergies-composition",
      "meta" : {
        "profile" : ["https://fhir.hl7.at/elga/aps/r4/StructureDefinition/at-aps-composition"]
      },
      "text" : {
        "status" : "extensions",
        "div" : "<div xmlns=\"http://www.w3.org/1999/xhtml\"><a name=\"Composition_APS-1-no-problems-medication-allergies-composition\"> </a><p class=\"res-header-id\"><b>Generated Narrative: Composition APS-1-no-problems-medication-allergies-composition</b></p><a name=\"APS-1-no-problems-medication-allergies-composition\"> </a><a name=\"hcAPS-1-no-problems-medication-allergies-composition\"> </a><a name=\"APS-1-no-problems-medication-allergies-composition-de-AT\"> </a><div style=\"display: inline-block; background-color: #d9e0e7; padding: 6px; margin: 4px; border: 1px solid #8da1b4; border-radius: 5px; line-height: 60%\"><p style=\"margin-bottom: 0px\"/><p style=\"margin-bottom: 0px\">Profile: <a href=\"StructureDefinition-at-aps-composition.html\">AT APS Composition</a></p></div><p><b>Country of Affiliation element</b>: AT</p><p><b>status</b>: Preliminary</p><p><b>type</b>: <span title=\"Codes:{http://loinc.org 60591-5}\">Patient summary</span></p><p><b>date</b>: 2024-02-08 14:01:30+0000</p><p><b>author</b>: <a href=\"Bundle-APS-1-no-problems-medication-allergies.html#urn-uuid-75db30ee-7028-486c-929a-c5126837f472\">Bundle: identifier = http://system-to-be-defined.com#63fef90a-be11-4ddf-aece-d77da15c4f20; type = document; timestamp = 2024-02-08 14:01:30+0000</a></p><p><b>title</b>: International Patient Summary</p><h3>Attesters</h3><table class=\"grid\"><tr><td style=\"display: none\">-</td><td><b>Mode</b></td><td><b>Party</b></td></tr><tr><td style=\"display: none\">*</td><td>Personal</td><td><a href=\"Bundle-APS-1-no-problems-medication-allergies.html#urn-uuid-0fed5ebe-ca8f-4ad1-aba4-ddad45bd6cc8\">Bundle: identifier = http://system-to-be-defined.com#63fef90a-be11-4ddf-aece-d77da15c4f20; type = document; timestamp = 2024-02-08 14:01:30+0000</a></td></tr></table><p><b>custodian</b>: <a href=\"Bundle-APS-1-no-problems-medication-allergies.html#urn-uuid-6bcdcc96-1443-48bd-ab41-7692dc1baecd\">Bundle: identifier = http://system-to-be-defined.com#63fef90a-be11-4ddf-aece-d77da15c4f20; type = document; timestamp = 2024-02-08 14:01:30+0000</a></p></div>"
      },
      "extension" : [{
        "url" : "https://fhir.hl7.at/elga/aps/r4/StructureDefinition/country-of-affiliation",
        "valueString" : "AT"
      }],
      "status" : "preliminary",
      "type" : {
        "coding" : [{
          "system" : "http://loinc.org",
          "code" : "60591-5",
          "display" : "Patient summary"
        }]
      },
      "subject" : {
        "reference" : "urn:uuid:0fed5ebe-ca8f-4ad1-aba4-ddad45bd6cc8"
      },
      "date" : "2024-02-08T14:01:30+00:00",
      "author" : [{
        "reference" : "urn:uuid:75db30ee-7028-486c-929a-c5126837f472"
      }],
      "title" : "International Patient Summary",
      "attester" : [{
        "mode" : "personal",
        "party" : {
          "reference" : "urn:uuid:0fed5ebe-ca8f-4ad1-aba4-ddad45bd6cc8"
        }
      }],
      "custodian" : {
        "reference" : "urn:uuid:6bcdcc96-1443-48bd-ab41-7692dc1baecd"
      },
      "section" : [{
        "title" : "Medication Summary",
        "code" : {
          "coding" : [{
            "system" : "http://loinc.org",
            "code" : "10160-0",
            "display" : "History of Medication use Narrative"
          }]
        },
        "text" : {
          "status" : "empty",
          "div" : "<div xmlns=\"http://www.w3.org/1999/xhtml\"><p>narrative needs to be generated</p></div>"
        },
        "emptyReason" : {
          "coding" : [{
            "system" : "http://terminology.hl7.org/CodeSystem/list-empty-reason",
            "code" : "nilknown"
          }]
        }
      },
      {
        "title" : "Allergies and Intolerances",
        "code" : {
          "coding" : [{
            "system" : "http://loinc.org",
            "code" : "48765-2",
            "display" : "Allergies and adverse reactions Document"
          }]
        },
        "text" : {
          "status" : "empty",
          "div" : "<div xmlns=\"http://www.w3.org/1999/xhtml\"><p>narrative needs to be generated</p></div>"
        },
        "emptyReason" : {
          "coding" : [{
            "system" : "http://terminology.hl7.org/CodeSystem/list-empty-reason",
            "code" : "nilknown"
          }]
        }
      },
      {
        "title" : "Problem List",
        "code" : {
          "coding" : [{
            "system" : "http://loinc.org",
            "code" : "11450-4",
            "display" : "Problem list - Reported"
          }]
        },
        "text" : {
          "status" : "empty",
          "div" : "<div xmlns=\"http://www.w3.org/1999/xhtml\"><p>narrative needs to be generated</p></div>"
        },
        "emptyReason" : {
          "coding" : [{
            "system" : "http://terminology.hl7.org/CodeSystem/list-empty-reason",
            "code" : "nilknown"
          }]
        }
      },
      {
        "title" : "History of Procedures",
        "code" : {
          "coding" : [{
            "system" : "http://loinc.org",
            "code" : "47519-4"
          }]
        },
        "text" : {
          "status" : "empty",
          "div" : "<div xmlns=\"http://www.w3.org/1999/xhtml\"><p>narrative needs to be generated</p></div>"
        },
        "emptyReason" : {
          "coding" : [{
            "system" : "http://terminology.hl7.org/CodeSystem/list-empty-reason",
            "code" : "nilknown"
          }]
        }
      },
      {
        "title" : "Medical Devices",
        "code" : {
          "coding" : [{
            "system" : "http://loinc.org",
            "code" : "46264-8",
            "display" : "History of medical device use"
          }]
        },
        "text" : {
          "status" : "empty",
          "div" : "<div xmlns=\"http://www.w3.org/1999/xhtml\"><p>narrative needs to be generated</p></div>"
        },
        "emptyReason" : {
          "coding" : [{
            "system" : "http://terminology.hl7.org/CodeSystem/list-empty-reason",
            "code" : "nilknown"
          }]
        }
      }]
    }
  },
  {
    "fullUrl" : "urn:uuid:0fed5ebe-ca8f-4ad1-aba4-ddad45bd6cc8",
    "resource" : {
      "resourceType" : "Patient",
      "id" : "APS-1-no-problems-medication-allergies-patient",
      "meta" : {
        "profile" : ["https://fhir.hl7.at/elga/aps/r4/StructureDefinition/at-aps-patient"]
      },
      "text" : {
        "status" : "generated",
        "div" : "<div xmlns=\"http://www.w3.org/1999/xhtml\"><a name=\"Patient_APS-1-no-problems-medication-allergies-patient\"> </a><p class=\"res-header-id\"><b>Generated Narrative: Patient APS-1-no-problems-medication-allergies-patient</b></p><a name=\"APS-1-no-problems-medication-allergies-patient\"> </a><a name=\"hcAPS-1-no-problems-medication-allergies-patient\"> </a><a name=\"APS-1-no-problems-medication-allergies-patient-de-AT\"> </a><div style=\"display: inline-block; background-color: #d9e0e7; padding: 6px; margin: 4px; border: 1px solid #8da1b4; border-radius: 5px; line-height: 60%\"><p style=\"margin-bottom: 0px\"/><p style=\"margin-bottom: 0px\">Profile: <a href=\"StructureDefinition-at-aps-patient.html\">AT APS Patient</a></p></div><p style=\"border: 1px #661aff solid; background-color: #e6e6ff; padding: 10px;\">Maria Johanna Musterfrau  Female, DoB: 1961-12-24 ( Social Security number: 1111241261)</p><hr/><table class=\"grid\"><tr><td style=\"background-color: #f3f5da\" title=\"Known Marital status of Patient\">Marital Status:</td><td colspan=\"3\"><span title=\"Codes:{http://terminology.hl7.org/CodeSystem/v3-MaritalStatus M}\">Married</span></td></tr><tr><td style=\"background-color: #f3f5da\" title=\"Other Id (see the one above)\">Other Id:</td><td colspan=\"3\">Patient internal identifier/0001</td></tr><tr><td style=\"background-color: #f3f5da\" title=\"Ways to contact the Patient\">Contact Detail</td><td colspan=\"3\"><ul><li><a href=\"tel:+43.2682.40400\">+43.2682.40400</a></li><li><a href=\"tel:+43.664.1234567\">+43.664.1234567</a></li><li><a href=\"mailto:musterfrau@provider.at\">musterfrau@provider.at</a></li><li>Musterstraße 13a Eisenstadt Burgenland 7000 AUT (home)</li></ul></td></tr></table></div>"
      },
      "identifier" : [{
        "type" : {
          "coding" : [{
            "system" : "http://terminology.hl7.org/CodeSystem/v2-0203",
            "code" : "SS",
            "display" : "Social Security number"
          }]
        },
        "system" : "urn:oid:1.2.40.0.10.1.4.3.1",
        "value" : "1111241261",
        "assigner" : {
          "display" : "Dachverband der österreichischen Sozialversicherungsträger"
        }
      },
      {
        "type" : {
          "coding" : [{
            "system" : "http://terminology.hl7.org/CodeSystem/v2-0203",
            "code" : "PI",
            "display" : "Patient internal identifier"
          }]
        },
        "system" : "urn:oid:1.2.3.4.5",
        "value" : "0001",
        "assigner" : {
          "display" : "Ein GDA in Österreich"
        }
      }],
      "name" : [{
        "family" : "Musterfrau",
        "given" : ["Maria",
        "Johanna"],
        "prefix" : ["Dr."]
      }],
      "telecom" : [{
        "system" : "phone",
        "value" : "+43.2682.40400",
        "use" : "home"
      },
      {
        "system" : "phone",
        "value" : "+43.664.1234567",
        "use" : "mobile"
      },
      {
        "system" : "email",
        "value" : "musterfrau@provider.at"
      }],
      "gender" : "female",
      "birthDate" : "1961-12-24",
      "address" : [{
        "use" : "home",
        "line" : ["Musterstraße 13a"],
        "city" : "Eisenstadt",
        "state" : "Burgenland",
        "postalCode" : "7000",
        "country" : "AUT"
      }],
      "maritalStatus" : {
        "coding" : [{
          "system" : "http://terminology.hl7.org/CodeSystem/v3-MaritalStatus",
          "code" : "M",
          "display" : "Married"
        }]
      }
    }
  },
  {
    "fullUrl" : "urn:uuid:75db30ee-7028-486c-929a-c5126837f472",
    "resource" : {
      "resourceType" : "Device",
      "id" : "APS-1-no-problems-medication-allergies-author",
      "text" : {
        "status" : "additional",
        "div" : "<div xmlns=\"http://www.w3.org/1999/xhtml\"><p>This Device generates an IPS FHIR Document from in production used ELGA CDA</p></div>"
      },
      "deviceName" : [{
        "name" : "IPS Generator",
        "type" : "user-friendly-name"
      }]
    }
  },
  {
    "fullUrl" : "urn:uuid:6bcdcc96-1443-48bd-ab41-7692dc1baecd",
    "resource" : {
      "resourceType" : "Organization",
      "id" : "APS-1-organization",
      "meta" : {
        "profile" : ["https://fhir.hl7.at/elga/aps/r4/StructureDefinition/at-aps-organization"]
      },
      "text" : {
        "status" : "generated",
        "div" : "<div xmlns=\"http://www.w3.org/1999/xhtml\"><a name=\"Organization_APS-1-organization\"> </a><p class=\"res-header-id\"><b>Generated Narrative: Organization APS-1-organization</b></p><a name=\"APS-1-organization\"> </a><a name=\"hcAPS-1-organization\"> </a><a name=\"APS-1-organization-de-AT\"> </a><div style=\"display: inline-block; background-color: #d9e0e7; padding: 6px; margin: 4px; border: 1px solid #8da1b4; border-radius: 5px; line-height: 60%\"><p style=\"margin-bottom: 0px\"/><p style=\"margin-bottom: 0px\">Profile: <a href=\"StructureDefinition-at-aps-organization.html\">AT APS Organization</a></p></div><p><b>name</b>: MusterOrganization</p></div>"
      },
      "name" : "MusterOrganization"
    }
  }]
}